AccX [mg],AccY,AccZ,Ground Truth
-781,746,-623,0
-766,781,-535,0
-690,730,-475,0
-648,635,-470,0
-613,624,-466,0
-593,618,-426,0
-606,701,-348,0
-632,697,-292,0
-664,597,-258,0
-680,549,-258,0
-688,508,-236,0
-694,479,-250,0
-682,504,-239,0
-688,604,-266,0
-660,801,-458,0
-460,839,-560,0
-312,1034,-484,0
-420,1092,-329,0
-599,877,-341,0
-682,815,-332,0
-557,660,-257,0
-480,573,-238,0
-471,601,-243,0
-514,679,-241,0
-567,824,-196,0
-556,974,-92,0
-495,955,-51,0
-423,816,-10,0
-396,766,27,0
-415,771,54,0
-473,795,52,0
-539,895,63,0
-646,940,61,0
-727,966,45,0
-764,974,-124,0
-776,815,-428,0
-690,686,-500,0
-563,903,-135,0
-523,945,-91,0
-412,850,-125,0
-297,670,-53,0
-289,553,-48,0
-330,573,-51,0
-404,605,-38,0
-484,778,-35,0
-561,921,-53,0
-619,967,-124,0
-621,982,-126,0
-631,1022,-15,0
-622,1082,26,0
-635,905,-200,0
-581,752,-363,0
-393,877,-253,0
-368,936,-159,0
-522,915,-130,0
-589,837,-121,0
-449,727,-37,0
-288,646,25,0
-252,675,76,0
-328,643,48,0
-415,756,-27,0
-466,855,-30,0
-533,1081,6,0
-606,1197,53,0
-649,1239,5,0
-709,1036,-301,0
-806,630,-352,0
-846,795,-178,0
-722,852,-102,0
-475,722,-108,0
-359,542,-34,0
-360,422,-36,0
-369,408,-30,0
-442,625,-26,0
-595,853,-79,0
-643,903,-45,0
-661,982,-56,0
-596,945,-57,0
-577,958,37,0
-587,976,99,0
-653,928,-254,0
-553,756,-431,0
-376,1019,-275,0
-386,1048,-178,0
-522,883,-129,0
-528,823,-90,0
-374,694,-50,0
-259,642,-48,0
-269,644,-5,0
-351,715,2,0
-446,775,-50,0
-504,861,-98,0
-580,992,-126,0
-614,1100,-124,0
-684,1226,-322,0
-812,961,-471,0
-914,881,-284,0
-819,802,-327,0
-591,600,-211,0
-359,662,-188,0
-519,322,20,0
-469,404,3,0
-425,284,-11,0
-437,643,-97,0
-750,1052,-106,0
-759,840,149,0
-659,835,-51,0
-678,867,-31,0
-713,966,-107,0
-850,1118,-313,0
-408,986,-279,0
-429,871,-293,0
-489,764,-188,0
-467,641,-123,0
-398,536,-98,0
-330,622,-98,0
-374,566,-58,0
-458,713,-65,0
-546,786,-87,0
-610,907,-135,0
-672,944,-205,0
-657,1019,-102,0
-636,1062,-85,0
-842,966,-364,0
-966,567,-441,0
-816,796,-219,0
-615,768,-127,0
-524,590,-102,0
-493,497,-80,0
-489,409,-68,0
-474,447,-40,0
-511,594,-20,0
-640,732,-80,0
-704,730,-93,0
-736,912,-79,0
-736,965,-60,0
-766,1006,-14,0
-775,1004,-378,0
-584,753,-473,0
-372,946,-219,0
-451,978,-161,0
-558,778,-165,0
-505,671,-118,0
-428,524,-52,0
-359,584,-75,0
-402,649,-59,0
-459,702,-67,0
-524,779,-69,0
-603,853,-128,0
-652,912,-153,0
-704,1070,-10,0
-873,1177,-299,0
-859,959,-408,0
-843,805,-252,0
-749,714,-268,0
-590,569,-154,0
-447,512,-108,0
-370,444,-83,0
-408,473,-126,0
-481,490,-103,0
-500,621,-58,0
-616,714,-30,0
-692,817,-48,0
-757,899,-199,0
-730,910,-130,0
-847,1223,-484,0
-674,823,-755,0
-491,1199,-285,0
-635,1233,-145,0
-653,753,-192,0
-466,517,-110,0
-372,358,-4,0
-243,336,-47,0
-325,394,-69,0
-436,621,-51,0
-580,757,-110,0
-821,929,-191,0
-794,1024,-157,0
-846,1156,-128,0
-914,1089,-509,0
-819,654,-521,0
-780,923,-313,0
-706,697,-281,0
-518,551,-209,0
-404,443,-154,0
-343,405,-124,0
-376,381,-142,0
-442,493,-150,0
-533,710,-159,0
-689,853,-203,0
-782,979,-244,0
-786,956,-275,0
-850,1048,-429,0
-785,786,-727,0
-492,926,-581,0
-536,1110,-435,0
-611,900,-316,0
-516,650,-228,0
-337,337,-73,0
-272,243,-30,0
-223,391,-22,0
-347,629,-113,0
-584,843,-133,0
-708,932,-224,0
-803,1045,-246,0
-871,1043,-114,0
-819,986,-355,0
-968,800,-644,0
-861,710,-462,0
-811,822,-262,0
-587,589,-208,0
-454,435,-125,0
-326,360,-97,0
-317,347,-105,0
-402,428,-97,0
-557,707,-126,0
-681,846,-125,0
-744,1007,-148,0
-801,960,-174,0
-928,1102,-205,0
-873,988,-647,0
-422,800,-443,0
-526,1173,-266,0
-646,826,-309,0
-576,649,-171,0
-368,487,-73,0
-302,345,-43,0
-277,443,-61,0
-350,529,-67,0
-512,744,-90,0
-643,824,-160,0
-760,998,-203,0
-849,1126,-139,0
-919,1295,-364,0
-878,838,-608,0
-816,781,-355,0
-777,748,-257,0
-601,562,-193,0
-442,492,-134,0
-370,437,-105,0
-302,349,-99,0
-402,452,-94,0
-499,590,-109,0
-692,714,-108,0
-801,928,-135,0
-801,972,-200,0
-815,1012,-206,0
-896,1116,-613,0
-439,807,-641,0
-366,1141,-443,0
-583,1018,-292,0
-566,673,-241,0
-353,531,-130,0
-296,439,-47,0
-276,384,-84,0
-367,504,-127,0
-499,646,-148,0
-629,875,-224,0
-822,974,-274,0
-861,1049,-202,0
-925,1104,-431,0
-1001,843,-738,0
-936,683,-551,0
-767,610,-426,0
-597,548,-228,0
-396,439,-167,0
-294,345,-138,0
-296,310,-132,0
-394,389,-196,0
-541,606,-189,0
-687,822,-174,0
-772,993,-210,0
-796,1036,-278,0
-766,1024,-261,0
-707,1142,-707,0
-752,640,-680,0
-457,1024,-474,0
-679,994,-422,0
-646,719,-250,0
-432,499,-114,0
-253,304,-78,0
-205,318,-60,0
-288,528,-66,0
-440,661,-55,0
-640,797,-145,0
-777,912,-186,0
-778,1119,-104,0
-866,1211,-142,0
-1028,1109,-614,0
-930,668,-455,0
-752,845,-201,0
-619,739,-94,0
-460,483,-12,0
-402,374,-45,0
-352,322,-23,0
-358,348,6,0
-443,590,43,0
-571,788,34,0
-687,917,-2,0
-812,1050,-98,0
-872,1034,-68,0
-950,1162,-462,0
-728,794,-645,0
-486,1093,-387,0
-638,1104,-281,0
-680,782,-201,0
-474,441,-114,0
-270,322,-37,0
-202,271,-24,0
-270,384,-10,0
-459,596,-41,0
-690,859,-116,0
-860,1079,-170,0
-832,1146,-88,0
-877,1108,-170,0
-984,909,-630,0
-900,651,-432,0
-836,848,-311,0
-703,677,-211,0
-533,431,-145,0
-385,357,-105,0
-343,323,-72,0
-392,334,-98,0
-557,521,-84,0
-669,741,-75,0
-799,887,-100,0
-825,890,-204,0
-854,925,-172,0
-985,1103,-440,0
-875,750,-718,0
-553,902,-553,0
-577,1019,-359,0
-686,784,-264,0
-588,477,-166,0
-358,375,-64,0
-248,339,-82,0
-269,366,-84,0
-412,590,-45,0
-612,862,-144,0
-749,851,-183,0
-820,1059,-226,0
-865,1173,-103,0
-988,1047,-505,0
-924,676,-665,0
-843,790,-416,0
-796,703,-290,0
-561,552,-170,0
-373,357,-80,0
-322,337,-76,0
-369,295,3,0
-445,480,-158,0
-612,618,-92,0
-795,847,-95,0
-898,993,-175,0
-924,988,-277,0
-980,1047,-531,0
-788,782,-786,0
-440,942,-435,0
-531,1017,-395,0
-622,752,-348,0
-497,437,-201,0
-357,386,-102,0
-291,370,-26,0
-325,463,-109,0
-453,575,-111,0
-584,745,-128,0
-729,846,-213,0
-808,945,-238,0
-909,1171,-116,0
-1059,1146,-467,0
-887,753,-612,0
-820,699,-394,0
-778,633,-268,0
-580,479,-142,0
-399,354,-82,0
-320,328,-92,0
-372,251,-61,0
-491,414,-112,0
-646,726,-111,0
-765,771,-98,0
-868,1008,-157,0
-947,998,-234,0
-1047,1044,-514,0
-835,790,-781,0
-434,964,-437,0
-553,1091,-349,0
-649,705,-280,0
-496,409,-189,0
-313,347,-86,0
-254,333,-45,0
-310,448,-99,0
-499,604,-91,0
-668,717,-167,0
-768,826,-222,0
-840,1090,-225,0
-945,1232,-298,0
-1044,1005,-762,0
-891,727,-588,0
-805,806,-366,0
-659,590,-219,0
-423,401,-132,0
-288,338,-108,0
-279,296,-111,0
-360,379,-115,0
-554,579,-163,0
-735,763,-148,0
-838,961,-154,0
-896,986,-254,0
-883,989,-208,0
-942,1056,-647,0
-460,917,-401,0
-611,949,-330,0
-634,646,-242,0
-438,479,-125,0
-322,312,4,0
-248,378,-45,0
-330,496,-111,0
-518,675,-130,0
-672,883,-187,0
-783,976,-251,0
-871,1048,-290,0
-932,1126,-402,0
-977,890,-723,0
-870,685,-553,0
-791,649,-346,0
-638,472,-248,0
-448,362,-181,0
-337,328,-132,0
-359,356,-130,0
-484,424,-144,0
-638,545,-169,0
-732,727,-169,0
-833,943,-189,0
-846,929,-251,0
-905,925,-245,0
-961,987,-639,0
-622,691,-643,0
-426,995,-367,0
-617,899,-332,0
-628,661,-253,0
-401,469,-143,0
-260,449,-120,0
-257,445,-126,0
-353,572,-145,0
-493,673,-152,0
-653,804,-192,0
-781,928,-296,0
-840,1071,-228,0
-1023,1200,-537,0
-996,781,-770,0
-817,711,-422,0
-738,640,-354,0
-600,450,-204,0
-432,345,-164,0
-321,330,-111,0
-340,345,-132,0
-464,474,-174,0
-621,621,-186,0
-739,774,-187,0
-842,1003,-225,0
-853,925,-270,0
-988,1113,-427,0
-877,791,-745,0
-456,811,-507,0
-442,979,-429,0
-595,814,-360,0
-538,526,-218,0
-359,419,-128,0
-275,393,-124,0
-330,468,-145,0
-493,637,-182,0
-578,729,-197,0
-662,856,-253,0
-776,960,-284,0
-860,1069,-245,0
-949,1040,-559,0
-855,728,-592,0
-800,656,-440,0
-760,657,-318,0
-596,524,-193,0
-408,397,-126,0
-353,378,-129,0
-401,353,-130,0
-521,438,-164,0
-619,600,-133,0
-768,789,-149,0
-846,935,-212,0
-896,936,-223,0
-980,1062,-288,0
-945,824,-682,0
-526,751,-529,0
-437,868,-375,0
-645,813,-333,0
-625,626,-210,0
-406,466,-137,0
-327,390,-165,0
-340,420,-152,0
-469,587,-136,0
-587,715,-130,0
-747,810,-238,0
-829,889,-309,0
-901,1125,-183,0
-1010,1072,-456,0
-923,577,-696,0
-797,574,-461,0
-711,670,-314,0
-569,642,-212,0
-386,449,-149,0
-343,395,-149,0
-415,377,-149,0
-551,451,-142,0
-665,679,-114,0
-795,776,-135,0
-890,1017,-245,0
-998,1036,-273,0
-982,1016,-577,0
-695,649,-807,0
-378,847,-504,0
-538,959,-423,0
-635,685,-310,0
-499,407,-179,0
-318,325,-138,0
-294,352,-130,0
-373,513,-154,0
-535,648,-169,0
-644,800,-223,0
-818,917,-297,0
-930,1148,-296,0
-976,1164,-309,0
-919,807,-613,0
-777,495,-636,0
-689,533,-432,0
-671,587,-314,0
-536,505,-205,0
-409,401,-156,0
-393,397,-190,0
-472,421,-172,0
-567,525,-154,0
-649,657,-116,0
-735,778,-127,0
-880,887,-221,0
-966,927,-304,0
-1059,1049,-434,0
-879,847,-662,0
-525,764,-579,0
-456,759,-435,0
-545,726,-300,0
-520,551,-191,0
-409,394,-134,0
-335,367,-142,0
-346,437,-132,0
-461,601,-135,0
-603,779,-186,0
-723,845,-224,0
-830,930,-304,0
-925,1057,-196,0
-971,1136,-352,0
-906,740,-612,0
-820,455,-546,0
-750,548,-406,0
-691,551,-292,0
-565,497,-170,0
-464,397,-131,0
-454,336,-180,0
-464,296,-163,0
-568,422,-155,0
-660,565,-104,0
-757,761,-95,0
-823,778,-176,0
-920,858,-339,0
-975,989,-251,0
-1037,1081,-515,0
-824,620,-863,0
-415,774,-702,0
-472,842,-571,0
-652,765,-435,0
-690,580,-252,0
-531,414,-184,0
-375,424,-167,0
-370,412,-186,0
-416,462,-228,0
-532,635,-307,0
-694,815,-393,0
-891,1079,-416,0
-1087,1300,-432,0
-906,1048,-462,0
-697,732,-725,0
-677,453,-952,0
-672,474,-972,0
-633,603,-746,0
-652,602,-556,0
-650,546,-421,0
-587,497,-319,0
-496,391,-282,0
-385,318,-213,0
-330,284,-197,0
-331,305,-156,0
-442,423,-161,0
-581,523,-185,0
-714,646,-225,0
-785,758,-291,0
-889,978,-322,0
-947,1125,-407,0
-979,1023,-639,0
-681,862,-582,0
-430,666,-587,0
-306,499,-522,0
-388,601,-348,0
-572,651,-354,0
-503,566,-275,0
-381,469,-241,0
-340,457,-237,0
-416,484,-242,0
-514,604,-219,0
-609,769,-290,0
-702,807,-337,0
-792,955,-421,0
-905,1085,-348,0
-983,1108,-543,0
-819,690,-691,0
-635,434,-628,0
-643,241,-499,0
-670,341,-320,0
-608,473,-279,0
-482,442,-237,0
-488,422,-235,0
-583,378,-225,0
-651,447,-237,0
-744,624,-264,0
-814,786,-267,0
-834,848,-362,0
-890,905,-400,0
-986,985,-490,0
-866,711,-746,0
-407,711,-645,0
-340,674,-507,0
-496,635,-389,0
-597,556,-288,0
-462,528,-236,0
-311,459,-211,0
-293,448,-216,0
-368,549,-220,0
-522,750,-238,0
-656,933,-285,0
-759,991,-394,0
-830,1090,-408,0
-876,1101,-557,0
-836,700,-667,0
-757,428,-625,0
-754,372,-504,0
-713,480,-334,0
-540,595,-290,0
-421,501,-225,0
-400,410,-183,0
-479,359,-204,0
-581,488,-200,0
-685,684,-228,0
-768,852,-247,0
-800,915,-323,0
-803,898,-355,0
-867,1040,-364,0
-842,798,-604,0
-564,661,-635,0
-377,681,-538,0
-508,659,-403,0
-605,663,-263,0
-549,558,-217,0
-413,434,-201,0
-343,419,-194,0
-375,506,-177,0
-482,696,-176,0
-580,883,-233,0
-647,945,-306,0
-734,1038,-370,0
-822,1093,-362,0
-891,989,-519,0
-806,700,-586,0
-718,449,-556,0
-688,394,-439,0
-640,486,-282,0
-522,540,-236,0
-439,531,-189,0
-485,458,-179,0
-552,443,-204,0
-645,552,-219,0
-717,722,-221,0
-758,842,-262,0
-779,928,-332,0
-825,987,-310,0
-916,1036,-508,0
-724,737,-654,0
-391,717,-612,0
-405,627,-494,0
-581,635,-341,0
-609,646,-234,0
-435,547,-201,0
-320,462,-207,0
-320,451,-198,0
-429,566,-200,0
-547,772,-217,0
-612,936,-257,0
-682,1041,-327,0
-749,1064,-313,0
-845,1103,-372,0
-845,861,-520,0
-735,638,-517,0
-691,424,-506,0
-703,374,-384,0
-638,501,-259,0
-507,542,-173,0
-506,475,-169,0
-570,489,-169,0
-640,573,-160,0
-716,710,-148,0
-776,844,-183,0
-790,929,-270,0
-852,988,-242,0
-969,1101,-315,0
-799,808,-516,0
-442,751,-512,0
-293,653,-471,0
-405,622,-319,0
-599,642,-238,0
-580,603,-208,0
-445,550,-203,0
-378,543,-195,0
-410,579,-180,0
-492,663,-152,0
-572,814,-179,0
-630,914,-231,0
-734,967,-311,0
-795,1044,-217,0
-917,1100,-323,0
-838,836,-519,0
-694,543,-525,0
-637,473,-453,0
-612,530,-266,0
-568,624,-207,0
-485,597,-165,0
-465,499,-168,0
-511,417,-181,0
-562,474,-150,0
-621,610,-117,0
-695,822,-112,0
-765,930,-196,0
-807,1001,-254,0
-877,1004,-206,0
-964,1018,-354,0
-692,794,-444,0
-410,718,-466,0
-370,613,-364,0
-498,597,-231,0
-585,617,-178,0
-512,551,-153,0
-418,527,-171,0
-401,533,-170,0
-480,639,-153,0
-565,788,-127,0
-643,908,-167,0
-755,902,-267,0
-807,940,-238,0
-863,1069,-186,0
-874,1002,-383,0
-820,712,-468,0
-726,477,-473,0
-695,389,-391,0
-628,487,-229,0
-523,575,-165,0
-470,562,-133,0
-511,474,-145,0
-575,432,-187,0
-640,505,-153,0
-732,704,-120,0
-803,835,-133,0
-826,860,-260,0
-870,906,-257,0
-913,1119,-211,0
-867,863,-440,0
-552,756,-524,0
-379,649,-484,0
-450,635,-305,0
-587,620,-223,0
-560,572,-185,0
-434,499,-175,0
-395,473,-206,0
-444,552,-177,0
-533,684,-137,0
-635,811,-136,0
-770,913,-228,0
-887,913,-317,0
-882,1006,-203,0
-947,1031,-396,0
-844,709,-489,0
-730,508,-473,0
-707,399,-427,0
-653,515,-248,0
-502,612,-166,0
-441,560,-112,0
-458,457,-114,0
-551,390,-173,0
-627,488,-168,0
-708,674,-137,0
-790,822,-136,0
-829,885,-211,0
-856,884,-277,0
-933,1007,-300,0
-914,965,-469,0
-618,850,-492,0
-411,663,-485,0
-423,556,-362,0
-535,579,-214,0
-546,566,-161,0
-491,505,-162,0
-442,470,-169,0
-498,566,-135,0
-567,710,-90,0
-669,847,-82,0
-764,884,-191,0
-835,878,-213,0
-831,951,-116,0
-888,902,-355,0
-886,671,-449,0
-812,556,-414,0
-713,531,-334,0
-644,557,-224,0
-535,558,-214,0
-479,586,-177,0
-497,513,-180,0
-526,472,-165,0
-571,553,-164,0
-638,679,-159,0
-673,744,-114,0
-730,752,-216,0
-785,769,-290,0
-874,956,-264,0
-949,1040,-438,0
-783,760,-581,0
-513,749,-561,0
-423,602,-443,0
-538,581,-300,0
-622,546,-267,0
-536,539,-227,0
-433,513,-246,0
-432,526,-241,0
-482,607,-193,0
-552,726,-183,0
-636,827,-200,0
-736,859,-276,0
-798,898,-305,0
-835,969,-277,0
-912,857,-570,0
-862,538,-641,0
-767,537,-448,0
-725,594,-355,0
-617,569,-278,0
-486,539,-242,0
-480,477,-224,0
-470,434,-195,0
-471,502,-174,0
-490,637,-156,0
-575,730,-162,0
-645,800,-229,0
-762,814,-314,0
-902,1037,-370,0
-912,881,-709,0
-683,696,-698,0
-518,800,-523,0
-596,775,-425,0
-679,750,-326,0
-602,635,-289,0
-447,494,-256,0
-405,486,-219,0
-431,498,-178,0
-470,589,-140,0
-512,684,-131,0
-575,841,-222,0
-660,928,-247,0
-677,1004,-215,0
-733,1003,-264,0
-753,876,-521,0
-698,619,-557,0
-694,784,-437,0
-759,785,-372,0
-675,778,-333,0
-546,634,-282,0
-474,484,-255,0
-434,433,-257,0
-471,490,-293,0
-553,652,-353,0
-698,819,-356,0
-786,1019,-260,0
-820,879,-316,0
-721,637,-379,0
-550,615,-342,0
-453,620,-357,0
-458,623,-275,0
-499,694,-290,0
-516,762,-292,0
-592,831,-339,0
-592,902,-326,0
-531,815,-300,0
-486,689,-283,0
-503,634,-273,0
-553,717,-300,0
-595,855,-344,0
-609,866,-339,0
-627,825,-262,0
-592,730,-252,0
-533,633,-269,0
-524,625,-266,0
-577,714,-257,0
-630,783,-236,0
-627,814,-240,0
-582,771,-247,0
-542,720,-240,0
-553,712,-232,0
-594,726,-222,0
-623,755,-231,0
-632,756,-232,0
-640,737,-232,0
-624,717,-241,0
-615,730,-236,0
-610,744,-231,0
-604,760,-233,0
-599,738,-242,0
-600,720,-246,0
-602,731,-240,0
-611,741,-231,0
-617,741,-228,0
-619,746,-239,0
-613,724,-237,0
-606,732,-232,0
-602,730,-232,0
-605,727,-229,0
-615,734,-250,0
-618,736,-257,0
-611,745,-265,0
-606,749,-254,0
-608,753,-238,0
-600,746,-227,0
-606,725,-227,0
-625,723,-233,0
-637,710,-247,0
-639,710,-252,0
-624,723,-245,0
-611,724,-227,0
-611,727,-243,0
-619,724,-241,0
-634,712,-246,0
-646,706,-245,0
-638,705,-230,0
-628,701,-236,0
-633,709,-231,0
-643,705,-259,0
-642,726,-266,0
-626,722,-262,0
-614,714,-249,0
-618,691,-253,0
-657,660,-281,0
-687,653,-280,0
-675,667,-278,0
-631,699,-259,0
-568,720,-244,0
-540,749,-231,0
-538,758,-218,0
-568,785,-227,0
-621,754,-262,0
-659,667,-335,0
-688,650,-334,0
-664,633,-327,0
-615,726,-284,0
-638,691,-293,0
-663,742,-338,0
-687,757,-342,0
-710,686,-347,0
-693,700,-329,0
-602,699,-319,0
-541,728,-311,0
-546,759,-254,0
-611,722,-292,0
-670,708,-487,0
-484,612,-396,0
-434,851,-321,0
-489,951,-255,0
-541,746,-276,0
-550,794,-289,0
-514,727,-246,0
-517,768,-221,0
-577,840,-204,0
-657,826,-207,0
-676,763,-192,0
-630,737,-173,0
-544,717,-162,0
-505,718,-186,0
-530,724,-187,0
-584,757,-187,0
-645,750,-193,0
-686,763,-207,0
-671,777,-215,0
-643,747,-202,0
-620,756,-180,0
-632,798,-193,0
-667,775,-288,0
-658,766,-301,0
-585,717,-206,0
-561,691,-206,0
-549,701,-209,0
-568,743,-230,0
-644,819,-167,0
-655,775,-161,0
-616,728,-218,0
-607,671,-204,0
-612,717,-177,0
-658,758,-186,0
-705,758,-191,0
-730,726,-227,0
-755,769,-248,0
-745,866,-290,0
-694,976,-327,0
-730,1183,-378,0
-668,1048,-323,0
-456,829,-310,0
-306,622,-321,0
-240,654,-286,0
-252,750,-201,0
-402,866,-191,0
-515,921,-182,0
-504,927,-214,0
-418,817,-216,0
-362,738,-152,0
-330,724,-130,0
-339,733,-82,0
-365,705,-109,0
-388,696,-117,0
-363,728,-108,0
-368,789,-111,0
-391,855,-92,0
-433,892,-123,0
-437,954,-148,0
-433,1040,-147,0
-466,1076,-166,0
-602,1046,-396,0
-734,822,-435,0
-704,733,-391,0
-695,589,-414,0
-669,578,-341,0
-612,677,-299,0
-536,665,-225,0
-533,623,-189,0
-527,550,-193,0
-555,561,-209,0
-620,683,-215,0
-657,758,-213,0
-673,792,-210,0
-687,791,-217,0
-673,719,-178,0
-679,718,-149,0
-735,724,-131,0
-887,700,-215,0
-1033,751,-371,0
-901,759,-416,0
-668,657,-459,0
-428,518,-450,0
-339,525,-380,0
-443,609,-320,0
-578,697,-301,0
-619,745,-308,0
-550,739,-347,0
-500,680,-327,0
-500,711,-283,0
-500,754,-263,0
-506,777,-276,0
-521,838,-333,0
-546,876,-345,0
-557,916,-307,0
-668,924,-304,0
-803,891,-512,0
-707,559,-452,0
-682,473,-398,0
-633,487,-368,0
-551,546,-285,0
-533,625,-318,0
-546,610,-293,0
-604,588,-318,0
-642,531,-339,0
-718,647,-372,0
-793,798,-400,0
-807,945,-438,0
-796,1112,-485,0
-798,1011,-514,0
-760,806,-674,0
-521,620,-764,0
-315,757,-624,0
-302,831,-498,0
-441,706,-445,0
-509,554,-405,0
-436,525,-338,0
-355,529,-301,0
-381,587,-319,0
-480,706,-346,0
-582,810,-389,0
-688,888,-428,0
-699,908,-450,0
-765,893,-575,0
-737,678,-656,0
-673,436,-547,0
-643,522,-382,0
-558,538,-265,0
-443,500,-282,0
-408,457,-249,0
-465,453,-247,0
-527,477,-272,0
-655,568,-302,0
-710,698,-352,0
-774,843,-416,0
-782,962,-447,0
-820,957,-552,0
-765,866,-711,0
-513,745,-656,0
-334,782,-562,0
-295,759,-440,0
-360,640,-391,0
-430,576,-365,0
-392,586,-328,0
-372,604,-320,0
-385,621,-300,0
-457,707,-331,0
-569,803,-378,0
-661,906,-428,0
-718,892,-478,0
-780,946,-622,0
-758,645,-661,0
-676,450,-571,0
-643,484,-411,0
-571,570,-344,0
-508,583,-339,0
-460,518,-277,0
-521,482,-277,0
-561,492,-286,0
-609,610,-358,0
-672,744,-462,0
-730,877,-484,0
-773,998,-543,0
-668,769,-698,0
-448,635,-671,0
-299,770,-523,0
-370,818,-432,0
-491,641,-404,0
-483,552,-366,0
-371,529,-303,0
-323,590,-287,0
-343,649,-299,0
-417,730,-311,0
-529,831,-391,0
-664,898,-497,0
-734,1002,-513,0
-804,933,-637,0
-748,606,-697,0
-691,429,-635,0
-698,479,-456,0
-596,579,-362,0
-492,528,-378,0
-436,488,-291,0
-489,471,-281,0
-543,510,-307,0
-605,592,-347,0
-670,744,-439,0
-747,822,-513,0
-743,916,-575,0
-670,806,-739,0
-463,733,-737,0
-312,783,-594,0
-367,780,-514,0
-449,586,-425,0
-440,503,-387,0
-350,505,-352,0
-308,508,-317,0
-369,608,-358,0
-461,692,-382,0
-528,855,-471,0
-652,976,-581,0
-678,1015,-558,0
-680,878,-700,0
-635,579,-731,0
-584,448,-655,0
-620,497,-463,0
-596,644,-337,0
-508,622,-323,0
-402,462,-276,0
-339,360,-261,0
-359,329,-230,0
-430,422,-221,0
-550,553,-248,0
-681,712,-284,0
-749,820,-334,0
-726,865,-380,0
-710,849,-373,0
-745,848,-527,0
-582,818,-503,0
-408,929,-488,0
-215,705,-477,0
-99,681,-463,0
-182,725,-466,0
-383,767,-515,0
-388,825,-480,0
-270,803,-428,0
-250,700,-389,0
-333,716,-419,0
-461,741,-440,0
-525,859,-482,0
-563,982,-481,0
-630,988,-517,0
-672,830,-806,0
-499,517,-636,0
-404,640,-535,0
-400,709,-448,0
-390,666,-341,0
-469,564,-343,0
-518,410,-374,0
-552,403,-352,0
-631,569,-311,0
-697,766,-311,0
-669,862,-355,0
-677,860,-427,0
-730,855,-539,0
-785,974,-597,0
-760,1058,-640,0
-639,727,-836,0
-345,500,-894,0
-137,623,-861,0
-179,737,-802,0
-293,719,-756,0
-331,657,-664,0
-242,624,-533,0
-166,556,-477,0
-159,498,-454,0
-261,542,-469,0
-375,599,-489,0
-463,798,-532,0
-513,931,-539,0
-554,967,-560,0
-600,848,-607,0
-683,770,-720,0
-765,628,-785,0
-752,546,-688,0
-642,487,-593,0
-589,469,-461,0
-546,485,-402,0
-486,479,-363,0
-414,394,-322,0
-405,409,-303,0
-477,445,-337,0
-519,531,-377,0
-598,707,-420,0
-675,803,-473,0
-756,906,-519,0
-803,920,-601,0
-784,913,-826,0
-578,714,-802,0
-381,681,-689,0
-290,671,-597,0
-321,646,-471,0
-414,523,-418,0
-429,515,-396,0
-386,461,-412,0
-380,487,-394,0
-441,628,-448,0
-522,714,-490,0
-591,847,-557,0
-672,841,-597,0
-748,843,-836,0
-761,506,-885,0
-751,455,-669,0
-685,545,-504,0
-502,453,-456,0
-313,335,-397,0
-272,341,-317,0
-392,422,-300,0
-502,541,-384,0
-597,672,-458,0
-738,846,-607,0
-811,933,-706,0
-700,934,-833,0
-499,762,-912,0
-332,692,-753,0
-309,744,-645,0
-359,645,-519,0
-404,513,-432,0
-380,422,-376,0
-308,443,-318,0
-308,503,-348,0
-378,589,-376,0
-500,695,-450,0
-641,783,-561,0
-734,875,-624,0
-800,934,-687,0
-775,781,-765,0
-707,465,-718,0
-707,356,-664,0
-665,406,-486,0
-513,440,-402,0
-443,451,-356,0
-436,415,-323,0
-512,481,-370,0
-552,563,-450,0
-660,719,-543,0
-748,823,-631,0
-699,941,-631,0
-537,804,-816,0
-359,653,-813,0
-285,738,-637,0
-460,609,-462,0
-453,518,-443,0
-404,469,-389,0
-428,532,-393,0
-475,597,-429,0
-564,705,-495,0
-628,761,-530,0
-714,784,-595,0
-781,717,-799,0
-808,428,-837,0
-781,407,-643,0
-711,493,-432,0
-516,471,-384,0
-386,383,-346,0
-373,348,-292,0
-428,421,-318,0
-547,502,-367,0
-724,709,-443,0
-805,831,-534,0
-798,904,-617,0
-798,915,-772,0
-605,696,-846,0
-386,716,-704,0
-285,730,-564,0
-355,693,-477,0
-454,479,-460,0
-455,446,-437,0
-362,461,-374,0
-335,543,-339,0
-410,608,-391,0
-483,673,-453,0
-567,797,-536,0
-631,810,-553,0
-688,841,-649,0
-683,745,-813,0
-710,653,-802,0
-672,645,-629,0
-651,602,-469,0
-561,555,-382,0
-447,435,-304,0
-391,350,-249,0
-365,324,-246,0
-378,329,-227,0
-444,446,-263,0
-513,574,-266,0
-671,726,-323,0
-764,840,-374,0
-722,881,-410,0
-672,804,-428,0
-678,717,-526,0
-658,780,-590,0
-517,990,-547,0
-260,878,-551,0
-103,719,-548,0
-147,681,-529,0
-339,689,-512,0
-425,709,-497,0
-334,740,-446,0
-295,663,-419,0
-322,600,-425,0
-422,674,-423,0
-512,758,-425,0
-563,848,-454,0
-610,922,-494,0
-665,1019,-479,0
-721,920,-627,0
-603,636,-750,0
-500,433,-638,0
-482,508,-548,0
-538,658,-417,0
-546,704,-369,0
-523,648,-368,0
-522,490,-366,0
-498,434,-332,0
-565,449,-305,0
-721,586,-249,0
-799,805,-322,0
-761,849,-375,0
-734,1019,-447,0
-740,1064,-488,0
-759,1030,-596,0
-630,825,-831,0
-388,701,-914,0
-304,745,-786,0
-370,788,-638,0
-432,638,-545,0
-414,525,-466,0
-360,444,-381,0
-322,456,-349,0
-367,540,-370,0
-495,695,-449,0
-654,794,-574,0
-709,832,-595,0
-753,821,-621,0
-761,595,-765,0
-725,438,-588,0
-687,557,-437,0
-585,581,-351,0
-433,488,-292,0
-388,377,-268,0
-388,292,-259,0
-453,386,-274,0
-608,619,-374,0
-755,820,-488,0
-875,1130,-609,0
-776,1052,-556,0
-690,822,-722,0
-487,631,-703,0
-346,633,-620,0
-342,709,-548,0
-391,687,-453,0
-462,597,-439,0
-434,533,-399,0
-393,533,-369,0
-383,567,-340,0
-477,626,-370,0
-574,687,-456,0
-647,772,-538,0
-742,844,-567,0
-817,879,-717,0
-784,602,-712,0
-742,432,-599,0
-703,409,-493,0
-612,436,-394,0
-510,413,-376,0
-431,441,-340,0
-445,458,-319,0
-501,566,-374,0
-623,677,-451,0
-693,761,-532,0
-742,880,-584,0
-704,909,-677,0
-539,734,-870,0
-367,783,-748,0
-342,805,-549,0
-420,676,-445,0
-455,453,-412,0
-393,367,-386,0
-321,426,-330,0
-351,571,-341,0
-446,642,-374,0
-526,710,-419,0
-625,790,-537,0
-712,874,-565,0
-802,945,-632,0
-756,779,-740,0
-732,495,-688,0
-711,480,-589,0
-638,512,-431,0
-527,562,-387,0
-449,484,-332,0
-437,445,-297,0
-448,415,-274,0
-510,485,-318,0
-632,674,-409,0
-728,785,-518,0
-850,961,-593,0
-828,951,-687,0
-594,784,-756,0
-387,687,-662,0
-311,703,-559,0
-338,718,-466,0
-428,598,-421,0
-437,499,-391,0
-377,479,-335,0
-368,525,-328,0
-412,635,-351,0
-494,720,-371,0
-593,778,-470,0
-672,848,-518,0
-705,907,-589,0
-743,919,-738,0
-655,623,-721,0
-589,440,-653,0
-562,468,-479,0
-498,528,-369,0
-454,495,-388,0
-450,525,-342,0
-499,516,-363,0
-539,505,-352,0
-621,614,-397,0
-704,686,-482,0
-775,847,-574,0
-756,890,-650,0
-643,905,-749,0
-396,759,-698,0
-280,786,-560,0
-299,747,-500,0
-394,643,-472,0
-403,536,-411,0
-332,486,-368,0
-271,468,-303,0
-270,480,-299,0
-342,532,-289,0
-407,639,-366,0
-537,840,-447,0
-627,1039,-502,0
-746,1180,-541,0
-731,1153,-596,0
-696,887,-720,0
-657,645,-793,0
-561,521,-735,0
-531,477,-522,0
-533,581,-353,0
-529,597,-360,0
-470,484,-295,0
-437,381,-277,0
-407,300,-219,0
-379,300,-189,0
-436,420,-212,0
-563,600,-255,0
-728,804,-360,0
-770,936,-428,0
-760,1053,-449,0
-783,1005,-400,0
-781,926,-506,0
-597,739,-666,0
-303,771,-540,0
-178,787,-471,0
-191,729,-399,0
-357,655,-354,0
-484,636,-317,0
-465,638,-270,0
-393,625,-248,0
-355,583,-232,0
-371,649,-234,0
-425,790,-218,0
-498,904,-212,0
-576,950,-277,0
-620,942,-321,0
-601,992,-363,0
-665,1135,-323,0
-789,1096,-442,0
-724,807,-574,0
-562,460,-551,0
-437,352,-406,0
-428,491,-184,0
-476,579,-180,0
-471,648,-226,0
-516,643,-233,0
-566,593,-231,0
-584,619,-201,0
-598,708,-188,0
-612,803,-182,0
-606,844,-246,0
-617,913,-341,0
-701,1022,-435,0
-785,1180,-576,0
-592,1002,-683,0
-363,792,-595,0
-294,650,-502,0
-362,597,-342,0
-461,541,-314,0
-441,528,-260,0
-355,585,-240,0
-314,561,-226,0
-342,640,-234,0
-423,781,-244,0
-544,943,-310,0
-679,1067,-369,0
-753,1077,-362,0
-803,1101,-491,0
-749,798,-636,0
-645,530,-557,0
-641,491,-518,0
-586,555,-373,0
-495,644,-294,0
-448,598,-247,0
-457,463,-207,0
-506,375,-226,0
-553,428,-258,0
-612,652,-308,0
-676,841,-298,0
-717,964,-357,0
-676,960,-430,0
-645,913,-382,0
-733,965,-547,0
-701,688,-782,0
-424,698,-642,0
-345,705,-533,0
-381,670,-396,0
-511,682,-367,0
-513,610,-320,0
-413,598,-275,0
-351,583,-252,0
-355,607,-220,0
-434,719,-209,0
-512,823,-248,0
-593,887,-300,0
-660,944,-349,0
-714,1005,-322,0
-827,1051,-522,0
-733,794,-527,0
-645,539,-464,0
-615,422,-415,0
-583,510,-263,0
-522,628,-278,0
-460,645,-260,0
-503,619,-256,0
-536,542,-264,0
-594,652,-260,0
-663,762,-252,0
-690,885,-306,0
-683,945,-357,0
-707,929,-361,0
-729,857,-576,0
-550,717,-616,0
-363,752,-518,0
-331,787,-403,0
-437,804,-375,0
-516,714,-349,0
-494,641,-302,0
-432,640,-274,0
-397,655,-245,0
-423,694,-221,0
-438,745,-242,0
-458,829,-268,0
-510,905,-273,0
-550,892,-288,0
-616,871,-352,0
-692,881,-459,0
-622,962,-458,0
-574,856,-400,0
-586,693,-416,0
-535,598,-385,0
-495,642,-357,0
-455,695,-329,0
-461,658,-343,0
-505,616,-371,0
-567,655,-414,0
-610,746,-432,0
-589,828,-399,0
-561,772,-362,0
-569,688,-343,0
-615,636,-362,0
-635,642,-356,0
-638,670,-352,0
-621,684,-372,0
-597,684,-374,0
-591,710,-370,0
-596,746,-363,0
-592,785,-350,0
-567,786,-340,0
-572,754,-325,0
-588,727,-321,0
-606,710,-314,0
-620,745,-291,0
-626,785,-262,0
-602,777,-265,0
-563,721,-272,0
-514,665,-275,0
-486,653,-276,0
-494,731,-260,0
-527,843,-266,0
-541,891,-266,0
-536,879,-261,0
-511,787,-252,0
-488,706,-244,0
-495,697,-242,0
-533,726,-269,0
-571,770,-302,0
-580,783,-324,0
-576,762,-334,0
-572,755,-342,0
-563,746,-334,0
-598,771,-392,0
-628,686,-427,0
-641,575,-332,0
-682,551,-357,0
-677,607,-388,0
-619,688,-424,0
-636,773,-345,0
-697,732,-307,0
-732,622,-329,0
-695,536,-372,0
-657,579,-385,0
-632,667,-353,0
-622,714,-328,0
-628,719,-332,0
-665,680,-343,0
-688,654,-335,0
-688,634,-308,0
-737,654,-389,0
-652,582,-428,0
-550,629,-400,0
-489,663,-377,0
-487,734,-386,0
-593,828,-395,0
-648,846,-351,0
-597,799,-300,0
-540,712,-274,0
-501,640,-243,0
-503,640,-228,0
-550,702,-218,0
-606,788,-218,0
-613,816,-242,0
-587,765,-256,0
-557,741,-266,0
-561,787,-253,0
-637,854,-251,0
-793,872,-399,0
-873,800,-520,0
-764,761,-387,0
-627,541,-342,0
-586,394,-360,0
-601,329,-359,0
-598,479,-330,0
-617,630,-296,0
-658,724,-270,0
-672,665,-298,0
-630,613,-311,0
-631,650,-264,0
-640,736,-244,0
-636,799,-253,0
-648,845,-275,0
-700,862,-265,0
-771,853,-304,0
-806,858,-483,0
-668,697,-465,0
-563,645,-497,0
-430,576,-443,0
-406,654,-337,0
-462,703,-304,0
-516,686,-263,0
-530,685,-263,0
-519,618,-266,0
-526,631,-239,0
-519,705,-197,0
-526,794,-223,0
-555,851,-257,0
-638,859,-262,0
-689,862,-275,0
-731,920,-231,0
-819,964,-410,0
-769,847,-581,0
-599,610,-398,0
-554,448,-322,0
-515,406,-280,0
-489,453,-273,0
-531,498,-306,0
-653,683,-269,0
-775,750,-278,0
-756,688,-284,0
-682,601,-255,0
-640,570,-225,0
-624,622,-239,0
-646,695,-290,0
-707,838,-331,0
-763,958,-307,0
-849,1020,-447,0
-764,768,-594,0
-560,654,-507,0
-421,609,-474,0
-396,562,-371,0
-508,610,-333,0
-568,633,-295,0
-560,663,-298,0
-514,645,-319,0
-484,641,-298,0
-492,691,-299,0
-501,741,-265,0
-535,821,-271,0
-587,819,-281,0
-632,804,-300,0
-680,791,-320,0
-731,871,-311,0
-801,924,-430,0
-722,848,-538,0
-577,600,-419,0
-565,435,-389,0
-559,415,-333,0
-551,542,-291,0
-543,636,-333,0
-595,711,-322,0
-636,691,-324,0
-650,653,-311,0
-633,651,-281,0
-622,643,-235,0
-641,661,-284,0
-661,684,-318,0
-707,723,-332,0
-725,828,-288,0
-718,900,-287,0
-762,924,-485,0
-661,746,-507,0
-517,612,-429,0
-466,566,-414,0
-500,565,-332,0
-593,595,-291,0
-667,653,-283,0
-658,688,-297,0
-611,667,-297,0
-579,636,-271,0
-559,662,-254,0
-562,709,-246,0
-600,766,-261,0
-622,746,-275,0
-681,740,-298,0
-708,717,-284,0
-681,747,-245,0
-688,771,-204,0
-826,732,-386,0
-911,651,-501,0
-775,648,-400,0
-674,569,-390,0
-624,465,-419,0
-620,385,-449,0
-639,432,-490,0
-688,595,-500,0
-700,705,-506,0
-687,710,-500,0
-675,636,-471,0
-656,555,-474,0
-635,542,-465,0
-629,597,-459,0
-631,640,-440,0
-612,670,-443,0
-596,688,-407,0
-585,704,-352,0
-586,712,-312,0
-567,689,-292,0
-551,640,-290,0
-520,687,-316,0
-537,784,-413,0
-429,840,-438,0
-420,894,-345,0
-502,857,-368,0
-588,785,-365,0
-639,791,-325,0
-649,764,-288,0
-600,700,-282,0
-567,659,-283,0
-552,629,-273,0
-557,665,-255,0
-547,729,-248,0
-547,805,-242,0
-564,838,-254,0
-600,835,-311,0
-630,808,-320,0
-666,824,-285,0
-763,829,-367,0
-848,801,-443,0
-752,786,-434,0
-615,685,-373,0
-561,429,-350,0
-553,341,-341,0
-567,406,-319,0
-593,550,-288,0
-635,718,-259,0
-677,749,-269,0
-672,688,-338,0
-622,605,-335,0
-613,625,-278,0
-637,680,-243,0
-669,730,-239,0
-692,718,-283,0
-712,697,-299,0
-722,711,-308,0
-740,774,-294,0
-795,836,-345,0
-828,828,-502,0
-647,684,-527,0
-460,550,-460,0
-394,543,-430,0
-424,582,-370,0
-593,624,-360,0
-713,715,-354,0
-678,760,-331,0
-577,668,-321,0
-516,605,-286,0
-503,628,-242,0
-510,717,-198,0
-536,796,-205,0
-573,802,-271,0
-641,789,-308,0
-681,770,-356,0
-675,782,-285,0
-742,854,-233,0
-821,898,-398,0
-738,788,-506,0
-594,601,-387,0
-548,454,-335,0
-543,394,-319,0
-551,468,-328,0
-582,609,-361,0
-637,753,-327,0
-673,805,-288,0
-646,695,-292,0
-612,581,-297,0
-608,573,-261,0
-631,642,-257,0
-644,716,-275,0
-670,748,-326,0
-706,762,-344,0
-722,808,-313,0
-742,839,-294,0
-752,839,-377,0
-716,744,-515,0
-544,592,-535,0
-407,560,-436,0
-548,633,-357,0
-701,702,-336,0
-691,700,-338,0
-600,644,-329,0
-521,596,-305,0
-493,605,-283,0
-504,673,-260,0
-535,759,-232,0
-575,812,-262,0
-605,796,-293,0
-653,762,-336,0
-678,755,-329,0
-694,796,-281,0
-776,862,-357,0
-800,884,-521,0
-657,688,-460,0
-566,494,-380,0
-550,399,-337,0
-542,421,-305,0
-567,559,-320,0
-618,691,-347,0
-643,824,-308,0
-639,787,-314,0
-616,654,-304,0
-594,594,-270,0
-616,619,-257,0
-641,653,-270,0
-662,705,-304,0
-683,728,-329,0
-690,743,-313,0
-697,754,-294,0
-737,777,-348,0
-786,799,-471,0
-702,756,-563,0
-541,581,-444,0
-499,538,-448,0
-487,503,-425,0
-593,563,-361,0
-750,647,-357,0
-777,676,-367,0
-677,635,-369,0
-621,562,-356,0
-611,548,-321,0
-623,576,-313,0
-638,643,-331,0
-655,684,-360,0
-670,681,-379,0
-693,681,-385,0
-708,689,-377,0
-702,685,-357,0
-697,680,-334,0
-688,661,-343,0
-741,665,-496,0
-737,606,-514,0
-659,587,-410,0
-587,505,-366,0
-555,409,-358,0
-566,345,-444,0
-658,378,-495,0
-810,571,-527,0
-857,739,-532,0
-768,746,-495,0
-675,630,-464,0
-640,524,-437,0
-624,520,-434,0
-630,602,-428,0
-637,682,-415,0
-625,716,-390,0
-604,689,-371,0
-588,646,-351,0
-606,629,-334,0
-645,623,-334,0
-680,613,-343,0
-677,621,-350,0
-673,640,-342,0
-681,665,-334,0
-729,708,-370,0
-707,732,-372,0
-699,712,-400,0
-704,646,-453,0
-676,559,-467,0
-596,565,-467,0
-497,577,-473,0
-453,649,-454,0
-500,727,-426,0
-554,735,-412,0
-549,691,-408,0
-529,622,-398,0
-536,614,-393,0
-574,649,-385,0
-600,717,-386,0
-613,744,-389,0
-596,732,-383,0
-585,712,-372,0
-600,709,-347,0
-609,723,-346,0
-607,724,-366,0
-606,746,-377,0
-621,769,-345,0
-709,805,-387,0
-807,791,-516,0
-767,725,-532,0
-599,644,-390,0
-507,498,-304,0
-522,362,-320,0
-611,319,-365,0
-721,476,-338,0
-758,680,-353,0
-679,793,-289,0
-634,697,-287,0
-629,538,-289,0
-651,478,-280,0
-718,563,-277,0
-767,675,-284,0
-743,755,-341,0
-692,722,-368,0
-696,728,-358,0
-734,734,-370,0
-810,770,-537,0
-770,716,-638,0
-664,626,-512,0
-580,587,-477,0
-450,464,-453,0
-392,482,-472,0
-446,567,-407,0
-610,669,-397,0
-707,774,-378,0
-683,690,-378,0
-645,575,-395,0
-597,525,-350,0
-586,577,-321,0
-620,663,-313,0
-671,721,-329,0
-707,718,-347,0
-721,679,-361,0
-705,684,-372,0
-658,704,-336,0
-624,723,-307,0
-710,702,-439,0
-790,568,-480,0
-815,613,-468,0
-733,583,-457,0
-630,422,-411,0
-592,312,-430,0
-628,329,-461,0
-694,425,-471,0
-774,574,-470,0
-808,652,-474,0
-775,630,-495,0
-744,499,-506,0
-722,423,-511,0
-714,436,-517,0
-714,511,-485,0
-716,575,-455,0
-696,593,-430,0
-686,565,-405,0
-672,532,-396,0
-678,500,-404,0
-747,551,-467,0
-727,709,-559,0
-627,642,-454,0
-651,632,-484,0
-585,499,-528,0
-525,511,-554,0
-538,618,-517,0
-604,707,-429,0
-604,698,-407,0
-590,606,-429,0
-583,576,-432,0
-602,610,-422,0
-610,655,-415,0
-598,706,-409,0
-573,712,-399,0
-563,712,-368,0
-571,714,-332,0
-601,753,-300,0
-618,768,-298,0
-634,753,-301,0
-674,728,-292,0
-725,758,-285,0
-787,793,-279,0
-852,798,-373,0
-825,740,-491,0
-677,539,-461,0
-597,421,-450,0
-525,379,-406,0
-473,535,-352,0
-462,722,-354,0
-497,820,-347,0
-529,888,-289,0
-576,798,-296,0
-580,653,-298,0
-566,616,-297,0
-570,630,-295,0
-594,682,-296,0
-645,726,-308,0
-672,773,-300,0
-665,750,-288,0
-646,693,-282,0
-645,665,-287,0
-658,693,-276,0
-715,732,-316,0
-751,804,-427,0
-667,856,-468,0
-529,826,-453,0
-436,683,-401,0
-364,601,-396,0
-361,589,-411,0
-438,650,-400,0
-512,792,-403,0
-505,895,-415,0
-459,837,-422,0
-442,726,-423,0
-431,686,-411,0
-444,724,-405,0
-458,776,-397,0
-481,801,-407,0
-491,770,-417,0
-507,747,-393,0
-515,736,-374,0
-517,741,-368,0
-504,767,-369,0
-500,776,-375,0
-496,780,-367,0
-506,776,-360,0
-519,746,-362,0
-534,731,-365,0
-536,721,-369,0
-541,721,-377,0
-537,736,-383,0
-545,738,-380,0
-537,746,-378,0
-539,733,-387,0
-544,727,-382,0
-546,714,-383,0
-550,728,-383,0
-555,715,-392,0
-566,706,-389,0
-565,722,-385,0
-572,707,-372,0
-569,708,-387,0
-568,695,-383,0
-563,698,-381,0
-569,710,-380,0
-577,708,-383,0
-588,698,-384,0
-586,698,-379,0
-577,686,-386,0
-567,692,-374,0
-557,706,-380,0
-564,699,-379,0
-584,700,-402,0
-592,709,-408,0
-569,717,-398,0
-541,737,-376,0
-521,721,-371,0
-521,704,-372,0
-564,695,-374,0
-573,713,-374,0
-558,761,-378,0
-521,754,-378,0
-509,744,-369,0
-511,721,-375,0
-553,713,-377,0
-578,730,-391,0
-575,745,-374,0
-564,722,-350,0
-572,702,-347,0
-563,696,-360,0
-540,672,-373,0
-532,684,-382,0
-513,703,-384,0
-518,742,-386,0
-532,761,-378,0
-548,772,-389,0
-546,758,-372,0
-563,745,-359,0
-574,701,-372,0
-578,703,-384,0
-561,739,-395,0
-536,787,-389,0
-525,819,-370,0
-533,824,-342,0
-571,792,-341,0
-587,741,-381,0
-560,662,-401,0
-517,610,-362,0
-500,599,-340,0
-529,618,-355,0
-588,679,-396,0
-641,739,-389,0
-700,828,-323,0
-713,821,-305,0
-667,682,-320,0
-632,587,-327,0
-602,587,-331,0
-605,596,-315,0
-678,591,-280,0
-758,667,-311,0
-608,764,-291,0
-535,805,-323,0
-544,756,-310,0
-533,839,-270,0
-520,890,-258,0
-483,854,-270,0
-441,805,-285,0
-418,758,-258,0
-394,744,-229,0
-393,754,-232,0
-419,773,-248,0
-476,799,-282,0
-529,810,-306,0
-567,799,-317,0
-578,801,-307,0
-564,799,-312,0
-533,797,-310,0
-493,779,-308,0
-461,798,-322,0
-458,807,-325,0
-488,861,-347,0
-548,894,-457,0
-561,835,-538,0
-532,746,-463,0
-480,633,-433,0
-490,550,-471,0
-510,562,-499,0
-568,717,-443,0
-558,796,-403,0
-511,737,-383,0
-468,666,-389,0
-470,673,-355,0
-516,745,-311,0
-569,801,-303,0
-616,793,-315,0
-655,729,-341,0
-677,678,-402,0
-686,649,-381,0
-684,685,-352,0
-701,707,-390,0
-664,717,-427,0
-599,760,-450,0
-545,698,-384,0
-503,634,-351,0
-445,584,-345,0
-415,611,-343,0
-456,732,-344,0
-589,830,-354,0
-673,834,-368,0
-650,737,-360,0
-567,637,-351,0
-496,598,-316,0
-471,625,-285,0
-489,709,-299,0
-557,768,-320,0
-621,843,-336,0
-655,805,-346,0
-670,757,-363,0
-613,750,-352,0
-543,767,-301,0
-591,800,-381,0
-646,725,-510,0
-626,677,-477,0
-571,700,-398,0
-532,624,-379,0
-545,579,-430,0
-558,617,-446,0
-576,752,-363,0
-588,806,-305,0
-571,703,-318,0
-532,607,-355,0
-532,599,-361,0
-564,646,-369,0
-599,731,-413,0
-623,769,-428,0
-630,754,-456,0
-643,659,-460,0
-622,586,-432,0
-627,573,-480,0
-506,689,-539,0
-389,849,-468,0
-369,968,-481,0
-368,840,-514,0
-398,752,-505,0
-445,730,-457,0
-455,760,-387,0
-446,760,-378,0
-439,716,-416,0
-478,690,-439,0
-527,698,-447,0
-557,712,-446,0
-556,736,-433,0
-550,741,-420,0
-549,754,-402,0
-540,743,-379,0
-523,717,-348,0
-510,695,-338,0
-523,683,-320,0
-601,714,-374,0
-649,656,-366,0
-631,659,-301,0
-611,620,-308,0
-638,599,-348,0
-696,711,-406,0
-684,831,-395,0
-633,861,-312,0
-611,739,-306,0
-592,577,-305,0
-579,532,-306,0
-594,578,-281,0
-623,698,-277,0
-647,808,-332,0
-661,826,-395,0
-684,913,-445,0
-622,495,-241,0
-631,744,-293,0
-652,768,-283,0
-709,738,-245,0
-632,867,-216,0
-550,787,-243,0
-499,736,-223,0
-490,716,-226,0
-487,725,-218,0
-481,759,-205,0
-469,787,-206,0
-451,824,-217,0
-450,818,-227,0
-498,827,-249,0
-510,853,-229,0
-536,857,-232,0
-540,840,-220,0
-529,800,-219,0
-512,777,-234,0
-513,769,-221,0
-520,798,-218,0
-536,812,-209,0
-558,821,-203,0
-572,795,-210,0
-564,786,-202,0
-568,763,-212,0
-555,774,-203,0
-540,784,-196,0
-546,802,-195,0
-527,803,-182,0
-532,790,-190,0
-531,790,-172,0
-550,784,-190,0
-557,778,-195,0
-563,792,-212,0
-562,824,-231,0
-543,849,-254,0
-523,838,-272,0
-499,828,-252,0
-480,801,-241,0
-492,796,-252,0
-499,789,-259,0
-517,798,-268,0
-520,783,-280,0
-520,747,-286,0
-502,711,-286,0
-520,695,-293,0
-559,740,-283,0
-607,841,-266,0
-602,917,-240,0
-578,878,-242,0
-555,770,-254,0
-553,679,-259,0
-597,700,-263,0
-637,740,-242,0
-656,823,-237,0
-609,834,-281,0
-547,699,-306,0
-498,571,-309,0
-475,565,-257,0
-512,721,-233,0
-595,880,-233,0
-663,952,-228,0
-632,922,-243,0
-559,798,-246,0
-532,715,-238,0
-554,687,-215,0
-597,736,-175,0
-630,828,-207,0
-640,834,-213,0
-652,823,-194,0
-622,737,-205,0
-554,660,-231,0
-486,674,-231,0
-488,710,-185,0
-536,789,-174,0
-599,810,-197,0
-618,768,-195,0
-642,734,-217,0
-630,711,-224,0
-600,722,-239,0
-552,770,-241,0
-521,826,-231,0
-500,855,-222,0
-502,853,-202,0
-502,823,-208,0
-517,801,-216,0
-517,788,-218,0
-520,784,-218,0
-525,765,-218,0
-533,760,-223,0
-530,795,-229,0
-530,807,-231,0
-530,811,-228,0
-529,797,-230,0
-524,795,-241,0
-521,794,-242,0
-521,798,-250,0
-509,802,-248,0
-517,808,-245,0
-515,809,-233,0
-529,809,-230,0
-539,778,-244,0
-548,756,-256,0
-543,769,-246,0
-538,785,-257,0
-538,780,-257,0
-530,793,-259,0
-531,785,-268,0
-524,798,-261,0
-533,801,-274,0
-536,795,-266,0
-542,779,-266,0
-544,762,-273,0
-546,759,-270,0
-540,764,-270,0
-538,776,-267,0
-528,790,-278,0
-526,793,-275,0
-527,793,-269,0
-526,769,-264,0
-535,746,-260,0
-551,728,-273,0
-546,742,-275,0
-536,801,-292,0
-533,830,-291,0
-520,838,-284,0
-531,795,-275,0
-546,752,-278,0
-568,744,-282,0
-577,744,-258,0
-602,739,-276,0
-611,731,-288,0
-582,712,-297,0
-573,721,-304,0
-539,728,-315,0
-538,754,-320,0
-539,779,-297,0
-556,786,-301,0
-572,763,-314,0
-568,752,-320,0
-553,764,-320,0
-542,765,-318,0
-537,756,-317,0
-533,761,-309,0
-543,736,-301,0
-566,730,-295,0
-585,738,-293,0
-578,738,-291,0
-580,732,-300,0
-570,716,-310,0
-578,711,-319,0
-578,727,-332,0
-554,758,-307,0
-533,781,-303,0
-538,798,-312,0
-546,820,-301,0
-523,822,-276,0
-513,765,-262,0
-520,701,-278,0
-563,684,-293,0
-594,712,-317,0
-595,753,-325,0
-577,760,-341,0
-555,763,-349,0
-521,778,-331,0
-508,778,-317,0
-511,753,-327,0
-534,744,-343,0
-536,758,-338,0
-538,776,-336,0
-535,755,-335,0
-542,740,-337,0
-541,741,-325,0
-543,755,-315,0
-539,767,-331,0
-527,769,-340,0
-513,764,-334,0
-521,761,-317,0
-541,755,-312,0
-569,754,-331,0
-569,750,-341,0
-551,747,-327,0
-536,739,-317,0
-546,720,-311,0
-556,715,-322,0
-557,770,-328,0
-531,791,-325,0
-527,791,-311,0
-531,761,-302,0
-542,745,-295,0
-554,755,-289,0
-549,752,-292,0
-532,741,-309,0
-515,716,-314,0
-526,704,-327,0
-554,745,-341,0
-581,786,-367,0
-605,801,-391,0
-584,798,-395,0
-560,768,-363,0
-533,715,-370,0
-490,690,-356,0
-478,694,-332,0
-477,692,-302,0
-501,687,-306,0
-525,725,-340,0
-560,788,-366,0
-592,841,-378,0
-606,838,-358,0
-608,774,-337,0
-590,708,-317,0
-549,683,-320,0
-537,680,-311,0
-534,697,-309,0
-530,684,-325,0
-521,641,-348,0
-552,622,-399,0
-594,590,-470,0
-596,542,-471,0
-647,514,-473,0
-709,612,-513,0
-738,706,-576,0
-718,746,-554,0
-711,748,-485,0
-713,675,-486,0
-692,543,-488,0
-681,439,-476,0
-684,421,-475,0
-692,431,-464,0
-696,466,-470,0
-710,477,-485,0
-738,517,-470,0
-765,536,-459,0
-757,515,-429,0
-745,483,-408,0
-738,518,-484,0
-620,579,-559,0
-464,777,-624,0
-389,898,-608,0
-415,952,-534,0
-427,919,-501,0
-378,787,-439,0
-296,674,-357,0
-274,656,-356,0
-301,715,-356,0
-384,798,-371,0
-476,834,-381,0
-534,821,-377,0
-535,781,-356,0
-521,757,-368,0
-486,729,-333,0
-471,743,-332,0
-488,763,-338,0
-533,807,-360,0
-594,899,-382,0
-659,946,-351,0
-745,980,-410,0
-745,901,-623,0
-551,587,-610,0
-444,415,-497,0
-440,458,-429,0
-458,560,-310,0
-469,654,-322,0
-498,676,-357,0
-531,643,-363,0
-579,631,-360,0
-598,685,-316,0
-592,722,-278,0
-608,693,-306,0
-633,697,-362,0
-672,706,-415,0
-689,845,-433,0
-696,993,-386,0
-680,1034,-501,0
-544,820,-622,0
-331,599,-595,0
-226,588,-521,0
-263,668,-383,0
-486,646,-360,0
-639,621,-389,0
-569,663,-363,0
-457,677,-358,0
-409,660,-335,0
-412,659,-295,0
-476,707,-266,0
-544,803,-293,0
-627,837,-343,0
-718,874,-398,0
-764,937,-377,0
-834,955,-449,0
-814,805,-588,0
-653,559,-550,0
-576,383,-476,0
-563,332,-422,0
-561,427,-332,0
-528,528,-330,0
-536,575,-326,0
-595,610,-336,0
-624,580,-382,0
-614,595,-375,0
-621,680,-324,0
-644,733,-333,0
-628,769,-390,0
-617,827,-418,0
-644,940,-369,0
-743,1009,-432,0
-758,818,-609,0
-554,629,-637,0
-360,561,-590,0
-304,573,-493,0
-408,637,-401,0
-598,666,-341,0
-629,674,-314,0
-544,653,-311,0
-493,585,-341,0
-471,589,-340,0
-482,646,-308,0
-547,740,-307,0
-616,790,-333,0
-654,789,-361,0
-661,750,-362,0
-643,738,-308,0
-679,802,-324,0
-744,829,-489,0
-775,726,-514,0
-707,569,-414,0
-688,407,-434,0
-663,344,-431,0
-643,458,-388,0
-613,595,-346,0
-629,671,-301,0
-661,593,-339,0
-672,498,-385,0
-682,508,-385,0
-705,583,-345,0
-733,651,-366,0
-727,669,-397,0
-738,691,-415,0
-747,774,-437,0
-763,770,-524,0
-733,724,-584,0
-570,570,-477,0
-491,550,-494,0
-472,546,-461,0
-583,597,-403,0
-730,661,-379,0
-705,670,-344,0
-629,573,-362,0
-580,516,-379,0
-548,518,-364,0
-548,602,-357,0
-558,718,-369,0
-548,778,-374,0
-534,794,-362,0
-518,780,-347,0
-516,760,-340,0
-522,760,-342,0
-555,791,-337,0
-599,830,-309,0
-660,858,-293,0
-690,850,-329,0
-714,803,-430,0
-705,707,-449,0
-645,662,-406,0
-599,536,-369,0
-570,427,-441,0
-607,411,-459,0
-626,507,-386,0
-635,673,-325,0
-692,690,-253,0
-597,623,-337,0
-643,601,-305,0
-624,625,-271,0
-665,739,-226,0
-693,727,-207,0
-677,724,-218,0
-664,723,-226,0
-671,703,-237,0
-714,670,-275,0
-746,729,-249,0
-783,769,-270,0
-753,863,-284,0
-692,847,-316,0
-616,692,-300,0
-541,669,-277,0
-511,623,-281,0
-492,636,-226,0
-554,663,-185,0
-628,882,-113,0
-634,728,-96,0
-811,658,-178,0
-685,601,-157,0
-695,573,-195,0
-666,725,-200,0
-649,594,-156,0
-698,721,-130,0
-703,790,-88,0
-696,734,-103,0
-688,765,-83,0
-668,822,-68,0
-701,795,-43,0
-678,801,-109,0
-635,729,-121,0
-589,728,-63,0
-531,854,48,0
-631,805,83,0
-702,732,-224,0
-597,588,-196,0
-519,711,-209,0
-523,775,-177,0
-538,686,-292,0
-579,644,-209,0
-561,826,-275,0
-544,824,-385,0
-532,765,-384,0
-566,679,-326,0
-590,803,-370,0
-579,848,-451,0
-567,799,-406,0
-568,747,-368,0
-582,742,-457,0
-566,690,-455,0
-498,547,-360,0
-372,581,-470,0
-206,743,-525,0
-227,668,-422,0
-251,704,-528,0
-348,636,-547,0
-484,654,-553,0
-486,660,-597,0
-456,732,-624,0
-367,582,-593,0
-333,547,-568,0
-288,437,-651,0
-224,532,-711,0
-198,716,-696,0
-191,679,-608,0
-105,767,-669,0
-117,927,-601,0
-122,624,-739,0
-2,834,-713,0
-4,763,-434,0
123,826,-415,0
123,1138,-364,0
202,1015,-288,0
188,1180,-282,0
185,1048,-219,0
107,1120,-175,0
106,994,21,0
96,1120,104,0
80,964,207,0
94,959,249,0
114,904,343,0
179,635,402,0
356,1057,251,0
496,899,435,0
563,1095,361,0
377,995,-6,0
274,840,-443,0
364,1018,-348,0
387,914,-381,0
324,783,-546,0
231,692,-439,0
174,573,-463,0
118,621,-482,0
84,727,-534,0
31,839,-437,0
15,842,-510,0
-60,978,-519,0
-56,933,-553,0
-60,1012,-643,0
-9,942,-651,0
56,986,-643,0
111,736,-650,0
173,841,-671,0
183,670,-647,0
223,703,-658,0
274,790,-653,0
317,631,-590,0
299,642,-621,0
215,565,-640,0
208,658,-713,0
187,655,-709,0
197,693,-739,0
229,643,-665,0
192,715,-645,0
217,636,-650,0
188,695,-701,0
150,673,-730,0
134,622,-742,0
119,574,-797,0
185,641,-776,0
259,630,-737,0
269,609,-684,0
247,567,-651,0
236,582,-728,0
232,583,-817,0
206,584,-799,0
153,527,-793,0
125,559,-732,0
163,549,-740,0
166,511,-787,0
97,580,-819,0
81,550,-831,0
62,605,-770,0
43,586,-799,0
64,525,-778,0
61,523,-766,0
73,561,-770,0
103,538,-796,0
151,508,-819,0
199,515,-799,0
218,494,-790,0
227,516,-776,0
233,518,-831,0
253,545,-832,0
280,512,-776,0
234,540,-804,0
200,524,-768,0
192,538,-791,0
191,537,-789,0
205,548,-780,0
185,555,-785,0
228,529,-780,0
205,549,-786,0
183,577,-754,0
184,619,-728,0
214,606,-711,0
261,665,-659,0
298,684,-644,0
342,794,-668,0
307,811,-592,0
195,1045,-473,0
30,963,-511,0
-112,1025,-434,0
-120,1060,-432,0
-114,803,-349,0
-31,816,-391,0
54,914,-260,0
114,790,-215,0
204,785,-252,0
319,937,-252,0
359,896,-321,0
450,1227,-126,0
325,833,-176,0
261,806,-184,0
227,962,-157,0
211,985,-92,0
212,879,-28,0
214,828,-29,0
220,905,-44,0
280,920,-79,0
345,1077,-209,0
370,1134,-166,0
336,1041,-168,0
218,955,-159,0
115,899,-116,0
63,830,-136,0
78,883,-179,0
112,1019,-172,0
118,931,-197,0
150,910,-229,0
143,920,-232,0
125,906,-203,0
124,922,-186,0
124,934,-177,0
109,921,-193,0
100,940,-208,0
78,941,-190,0
58,949,-196,0
64,997,-192,0
64,984,-195,0
47,961,-206,0
42,965,-205,0
42,921,-239,0
35,923,-235,0
41,941,-225,0
53,921,-231,0
57,889,-221,0
67,890,-231,0
82,890,-219,0
98,903,-220,0
107,913,-213,0
88,928,-203,0
77,940,-203,0
45,947,-180,0
17,976,-188,0
-12,958,-189,0
-20,996,-188,0
-42,978,-212,0
-50,988,-224,0
-30,999,-213,0
-1,998,-213,0
31,1008,-212,0
82,1020,-201,0
141,1015,-188,0
176,987,-177,0
173,928,-161,0
156,869,-148,0
143,886,-177,0
140,899,-218,0
138,921,-231,0
122,936,-251,0
111,942,-252,0
106,928,-257,0
110,927,-261,0
111,930,-256,0
116,921,-261,0
112,904,-254,0
104,907,-253,0
101,900,-265,0
101,909,-259,0
104,923,-269,0
114,937,-279,0
128,956,-276,0
138,967,-289,0
137,969,-294,0
108,937,-278,0
78,930,-266,0
56,913,-252,0
45,921,-256,0
43,919,-264,0
41,935,-263,0
48,942,-274,0
55,940,-266,0
66,937,-257,0
74,931,-255,0
84,925,-263,0
86,925,-264,0
76,920,-261,0
67,925,-265,0
63,938,-267,0
64,952,-277,0
67,960,-287,0
64,959,-274,0
53,946,-270,0
45,934,-273,0
43,922,-263,0
34,936,-276,0
11,944,-274,0
-20,918,-289,0
0,887,-310,0
28,893,-304,0
59,922,-288,0
94,957,-264,0
102,948,-250,0
91,945,-253,0
77,920,-244,0
69,928,-231,0
63,940,-225,0
68,958,-228,0
79,973,-238,0
98,984,-249,0
96,944,-252,0
81,929,-256,0
68,934,-255,0
65,935,-259,0
76,936,-259,0
81,920,-267,0
81,937,-275,0
85,940,-270,0
84,934,-271,0
71,921,-266,0
57,927,-258,0
53,946,-254,0
43,928,-250,0
41,918,-242,0
38,919,-236,0
37,925,-245,0
44,928,-242,0
55,945,-244,0
61,950,-242,0
68,951,-237,0
75,943,-226,0
76,925,-218,0
73,927,-218,0
71,938,-234,0
69,945,-253,0
66,955,-260,0
65,956,-247,0
74,952,-243,0
88,949,-236,0
103,947,-232,0
104,938,-238,0
89,920,-236,0
68,923,-229,0
46,923,-232,0
34,933,-234,0
33,953,-236,0
36,957,-241,0
42,948,-233,0
47,952,-231,0
48,936,-236,0
47,937,-244,0
49,941,-244,0
54,942,-252,0
60,940,-257,0
64,935,-252,0
65,932,-254,0
68,928,-255,0
67,934,-251,0
68,930,-259,0
60,920,-259,0
45,922,-263,0
37,925,-266,0
39,934,-271,0
48,942,-275,0
58,946,-268,0
90,985,-265,0
108,958,-255,0
113,938,-249,0
109,935,-253,0
82,908,-273,0
39,894,-285,0
-5,903,-299,0
-41,932,-311,0
-51,955,-317,0
-70,933,-315,0
-85,945,-330,0
-98,933,-350,0
-87,956,-355,0
-76,954,-357,0
-64,953,-364,0
-50,927,-351,0
-36,905,-341,0
-33,876,-325,0
-42,858,-323,0
-58,842,-318,0
-77,850,-336,0
-84,863,-359,0
-101,868,-361,0
-116,924,-378,0
-88,978,-391,0
-56,948,-359,0
-23,984,-361,0
-7,930,-324,0
-11,889,-312,0
-29,881,-298,0
-36,909,-299,0
-37,909,-306,0
-37,912,-320,0
-50,894,-320,0
-63,905,-335,0
-59,916,-343,0
-36,961,-334,0
5,972,-313,0
33,955,-285,0
33,901,-275,0
-2,852,-267,0
-32,897,-264,0
-46,901,-270,0
-50,918,-277,0
-58,920,-285,0
-68,910,-292,0
-76,911,-301,0
-91,891,-302,0
-99,902,-312,0
-90,930,-331,0
-69,950,-339,0
-39,979,-342,0
-23,967,-333,0
-10,945,-327,0
-3,919,-316,0
0,913,-313,0
1,914,-316,0
-1,911,-321,0
-13,904,-322,0
-24,900,-332,0
-33,903,-334,0
-38,914,-336,0
-32,931,-340,0
-35,927,-334,0
-30,932,-332,0
-24,911,-328,0
-36,908,-324,0
-42,921,-332,0
-36,904,-326,0
-46,901,-325,0
-48,929,-336,0
-31,928,-333,0
-31,943,-335,0
-35,945,-322,0
-51,900,-318,0
-91,845,-320,0
-125,860,-343,0
-82,943,-350,0
-40,963,-357,0
-20,939,-335,0
-15,917,-319,0
0,916,-319,0
21,905,-302,0
31,915,-318,0
28,891,-324,0
5,886,-322,0
-21,886,-330,0
-47,877,-331,0
-70,878,-339,0
-108,881,-382,0
-176,857,-340,0
-199,718,-261,0
-169,718,-184,0
16,830,-265,0
97,811,-224,0
233,1068,-137,0
340,1331,66,0
396,1173,17,0
364,957,208,0
355,805,323,0
308,859,375,0
315,905,436,0
353,832,410,0
359,919,341,0
377,1259,339,0
284,932,576,0
287,806,566,0
187,732,769,0
37,730,843,0
-15,485,773,0
47,405,770,0
245,323,682,0
371,143,573,0
607,196,767,0
861,154,648,0
977,329,798,0
781,235,1136,0
563,283,910,0
465,174,825,0
404,231,743,0
556,172,935,0
484,41,1010,0
487,277,780,0
487,289,944,0
479,96,990,0
430,319,940,0
390,214,842,0
384,187,936,0
342,290,777,0
306,348,692,0
294,297,870,0
307,205,938,0
317,261,920,0
361,371,868,0
374,353,836,0
373,344,857,0
356,298,795,0
382,211,774,0
420,211,877,0
404,278,903,0
389,288,831,0
405,369,776,0
405,555,726,0
529,702,754,0
512,643,718,0
499,341,662,0
558,107,579,0
574,-6,855,0
460,140,847,0
439,-72,815,0
475,27,815,0
535,181,823,0
532,145,732,0
521,63,729,0
681,197,795,0
740,294,903,0
668,179,871,0
630,138,859,0
587,109,846,0
607,174,818,0
638,198,777,0
623,490,772,0
648,335,694,0
732,270,697,0
726,401,720,0
684,394,690,0
595,431,668,0
544,382,686,0
448,408,704,0
227,588,709,0
-102,660,748,0
-189,667,977,0
67,535,1074,0
164,248,980,0
304,99,937,0
505,284,936,0
530,288,778,0
515,248,618,0
571,740,714,0
572,500,804,0
386,547,810,0
312,408,916,0
309,379,831,0
375,345,730,0
518,338,730,0
683,497,743,0
814,431,612,0
822,404,596,0
749,357,656,0
588,109,683,0
447,310,744,0
423,363,762,0
400,277,832,0
342,266,883,0
369,448,1038,0
353,327,948,0
277,265,866,0
292,376,905,0
352,386,870,0
310,359,841,0
343,462,836,0
371,492,853,0
284,337,860,0
330,420,845,0
337,427,845,0
324,369,839,0
333,501,800,0
280,461,772,0
368,637,783,0
413,657,819,0
360,516,819,0
394,707,740,0
465,919,691,0
358,913,691,0
331,978,521,0
290,967,477,0
198,932,432,0
122,657,461,0
37,622,551,0
-86,328,639,0
-72,273,760,0
-153,269,889,0
-124,202,1104,0
-144,300,1096,0
-159,202,1001,0
-133,282,958,0
-120,233,959,0
-155,207,974,0
-182,96,1011,0
-262,171,960,0
-291,112,875,0
-153,430,923,0
-131,501,814,0
35,455,640,0
360,1054,807,0
952,938,1315,0
579,818,725,0
41,774,566,0
-30,849,426,0
-197,874,136,0
-266,908,111,0
-227,1122,172,0
-224,882,346,0
-113,689,372,0
-39,815,317,0
78,954,188,0
110,1039,743,0
-171,919,319,0
-257,1135,56,0
-347,970,-11,0
-315,853,25,0
-204,845,-3,0
-117,823,252,0
-53,792,121,0
-7,825,145,0
10,814,-148,0
-34,766,-446,0
-117,739,-601,0
-115,640,-839,0
-124,428,-963,0
-149,227,-1070,0
-148,78,-1241,0
-123,111,-1150,0
-56,146,-998,0
-35,134,-944,0
36,299,-918,0
180,372,-952,0
298,287,-1072,0
283,269,-1035,0
282,217,-1053,0
265,158,-1025,0
339,266,-868,0
363,292,-875,0
429,292,-862,0
372,366,-787,0
371,300,-842,0
395,434,-814,0
371,349,-895,0
365,417,-845,0
386,408,-850,0
413,433,-850,0
438,506,-797,0
482,314,-758,0
463,333,-644,0
379,306,-599,0
332,394,-618,0
247,312,-891,0
175,248,-1017,0
165,215,-1066,0
228,234,-986,0
386,236,-941,0
264,78,-1098,0
280,194,-886,0
325,232,-855,0
368,175,-851,0
393,162,-876,0
378,215,-890,0
383,146,-843,0
399,239,-910,0
429,292,-961,0
428,298,-873,0
450,456,-818,0
539,429,-830,0
540,433,-827,0
548,455,-807,0
429,564,-576,0
310,707,-598,0
132,739,-610,0
-5,628,-486,0
49,784,-293,0
248,1064,-347,0
393,862,-418,0
411,953,-73,0
331,835,-15,0
317,924,143,0
237,595,173,0
211,890,288,0
171,947,235,0
139,944,150,0
401,1167,245,0
483,898,349,0
360,723,304,0
392,852,165,0
330,767,147,0
338,897,238,0
309,908,258,0
322,1030,357,0
350,939,454,0
443,943,376,0
515,854,389,0
521,843,468,0
352,594,633,0
234,589,480,0
116,529,497,0
43,672,506,0
110,684,485,0
238,820,688,0
589,742,1124,0
393,673,879,0
429,570,797,0
471,358,603,0
555,491,599,0
627,743,567,0
702,624,739,0
707,586,645,0
507,666,535,0
276,942,498,0
25,1160,252,0
-87,989,205,0
-185,1005,219,0
-163,1133,105,0
-162,940,79,0
-165,950,-14,0
-73,1053,-122,0
-5,972,-109,0
0,880,-219,0
-2,730,-306,0
19,935,-396,0
62,961,-377,0
79,983,-383,0
93,911,-455,0
101,828,-596,0
105,886,-593,0
97,769,-601,0
32,612,-834,0
-46,608,-759,0
-68,461,-666,0
-141,563,-761,0
-131,474,-798,0
-170,535,-838,0
-241,561,-969,0
-233,386,-852,0
-237,352,-913,0
-278,322,-885,0
-258,282,-813,0
-334,174,-958,0
-347,336,-910,0
-369,389,-1136,0
-387,383,-1158,0
-283,470,-956,0
-233,419,-705,0
-273,356,-689,0
-339,422,-732,0
-353,470,-791,0
-320,519,-813,0
-275,510,-756,0
-264,512,-744,0
-270,550,-744,0
-260,578,-707,0
-254,608,-674,0
-248,623,-642,0
-240,665,-625,0
-239,670,-626,0
-263,697,-637,0
-288,745,-726,0
-290,760,-799,0
-251,704,-693,0
-277,678,-542,0
-318,790,-535,0
-324,802,-559,0
-290,804,-569,0
-288,772,-574,0
-311,734,-560,0
-332,691,-540,0
-365,667,-515,0
-402,666,-520,0
-430,659,-546,0
-447,645,-584,0
-457,624,-599,0
-461,611,-623,0
-471,606,-621,0
-466,627,-663,0
-443,655,-694,0
-396,724,-745,0
-373,808,-806,0
-276,796,-782,0
-236,702,-717,0
-234,654,-704,0
-241,598,-705,0
-246,564,-682,0
-256,528,-666,0
-296,505,-673,0
-350,554,-725,0
-390,587,-780,0
-398,606,-815,0
-385,683,-891,0
-349,741,-884,0
-326,683,-820,0
-305,668,-758,0
-298,662,-708,0
-293,630,-659,0
-297,620,-612,0
-335,673,-649,0
-308,634,-612,0
-309,571,-530,0
-347,641,-498,0
-414,658,-529,0
-448,722,-554,0
-443,809,-585,0
-378,892,-603,0
-335,834,-495,0
-331,797,-433,0
-354,789,-442,0
-376,769,-461,0
-377,753,-479,0
-383,720,-485,0
-380,744,-516,0
-360,744,-523,0
-328,759,-524,0
-304,775,-520,0
-296,758,-494,0
-305,759,-454,0
-336,767,-442,0
-370,782,-447,0
-402,795,-452,0
-423,795,-469,0
-438,793,-477,0
-456,776,-498,0
-523,776,-558,0
-519,824,-653,0
-422,734,-588,0
-392,675,-526,0
-399,722,-571,0
-373,701,-604,0
-340,696,-598,0
-346,704,-569,0
-342,678,-516,0
-365,650,-479,0
-395,663,-464,0
-413,669,-459,0
-420,664,-452,0
-430,699,-459,0
-441,695,-464,0
-461,711,-481,0
-477,755,-495,0
-466,764,-492,0
-522,787,-574,0
-482,915,-745,0
-342,759,-592,0
-259,622,-432,0
-308,745,-474,0
-325,772,-548,0
-303,738,-552,0
-323,730,-464,0
-387,692,-380,0
-454,681,-386,0
-494,730,-423,0
-508,747,-424,0
-498,767,-470,0
-459,778,-506,0
-427,751,-492,0
-428,775,-500,0
-441,820,-543,0
-397,868,-625,0
-332,839,-618,0
-299,744,-576,0
-322,729,-588,0
-335,680,-591,0
-338,609,-548,0
-381,622,-564,0
-423,675,-633,0
-400,670,-643,0
-369,629,-587,0
-367,635,-554,0
-393,608,-535,0
-419,625,-550,0
-428,686,-562,0
-411,741,-578,0
-383,789,-581,0
-367,779,-536,0
-357,759,-485,0
-365,750,-447,0
-393,732,-446,0
-446,775,-508,0
-447,803,-571,0
-399,765,-556,0
-388,785,-555,0
-379,758,-535,0
-360,693,-520,0
-354,647,-512,0
-382,655,-545,0
-400,681,-578,0
-396,688,-564,0
-392,688,-526,0
-402,705,-501,0
-418,707,-499,0
-430,709,-510,0
-433,707,-516,0
-423,713,-531,0
-421,715,-536,0
-423,740,-552,0
-419,743,-577,0
-395,761,-623,0
-375,765,-632,0
-344,703,-580,0
-346,661,-564,0
-364,636,-583,0
-377,635,-606,0
-372,619,-631,0
-376,603,-658,0
-387,607,-663,0
-401,606,-659,0
-411,618,-667,0
-414,632,-674,0
-405,642,-678,0
-397,675,-703,0
-380,700,-716,0
-369,667,-685,0
-375,651,-652,0
-391,635,-622,0
-419,617,-607,0
-437,643,-603,0
-448,655,-597,0
-449,663,-606,0
-451,692,-606,0
-418,656,-555,0
-418,625,-532,0
-424,666,-556,0
-422,677,-521,0
-420,666,-529,0
-433,657,-505,0
-454,655,-504,0
-478,674,-516,0
-487,699,-535,0
-484,722,-563,0
-458,745,-549,0
-442,784,-540,0
-422,806,-558,0
-434,794,-595,0
-443,713,-642,0
-466,615,-714,0
-464,545,-726,0
-444,458,-715,0
-429,421,-709,0
-415,430,-677,0
-408,453,-641,0
-403,484,-621,0
-393,534,-624,0
-387,616,-596,0
-380,693,-616,0
-397,736,-736,0
-385,763,-835,0
-367,733,-721,0
-347,632,-616,0
-366,589,-562,0
-409,637,-654,0
-409,653,-727,0
-375,641,-732,0
-337,642,-689,0
-331,674,-659,0
-328,694,-646,0
-303,692,-592,0
-278,685,-544,0
-260,685,-529,0
-269,720,-540,0
-283,758,-544,0
-294,781,-520,0
-303,761,-487,0
-335,724,-475,0
-366,726,-463,0
-395,722,-483,0
-421,691,-518,0
-435,709,-555,0
-434,730,-594,0
-418,742,-625,0
-406,734,-616,0
-404,705,-590,0
-420,693,-586,0
-438,682,-570,0
-442,689,-564,0
-444,682,-576,0
-439,696,-603,0
-422,709,-616,0
-411,684,-605,0
-410,669,-601,0
-417,667,-612,0
-420,692,-662,0
-361,675,-606,0
-311,678,-568,0
-294,736,-591,0
-258,793,-628,0
-196,846,-651,0
-135,842,-636,0
-99,793,-545,0
-93,779,-462,0
-106,790,-444,0
-125,800,-447,0
-160,825,-433,0
-202,837,-467,0
-237,816,-480,0
-273,788,-470,0
-314,785,-481,0
-352,780,-505,0
-365,752,-527,0
-363,741,-555,0
-354,759,-570,0
-330,765,-555,0
-304,772,-538,0
-275,785,-514,0
-261,787,-482,0
-257,804,-485,0
-255,849,-507,0
-240,865,-525,0
-257,869,-577,0
-307,878,-672,0
-341,812,-737,0
-374,696,-697,0
-401,538,-644,0
-458,480,-657,0
-498,474,-733,0
-513,461,-782,0
-470,403,-742,0
-446,391,-701,0
-460,425,-691,0
-466,468,-737,0
-458,513,-792,0
-412,559,-769,0
-390,579,-743,0
-386,596,-725,0
-388,622,-717,0
-400,686,-746,0
-427,721,-813,0
-425,779,-909,0
-295,681,-681,0
-243,572,-469,0
-279,649,-500,0
-289,663,-577,0
-265,651,-644,0
-250,643,-690,0
-269,635,-646,0
-288,637,-622,0
-296,629,-613,0
-297,640,-607,0
-274,680,-609,0
-244,716,-582,0
-211,755,-576,0
-202,747,-544,0
-246,759,-568,0
-279,758,-596,0
-329,735,-605,0
-427,785,-722,0
-426,865,-827,0
-343,660,-669,0
-353,618,-649,0
-381,663,-719,0
-353,629,-739,0
-300,568,-688,0
-273,568,-643,0
-292,522,-585,0
-341,480,-632,0
-378,492,-601,0
-378,450,-580,0
-429,514,-638,0
-426,545,-672,0
-442,608,-712,0
-448,643,-781,0
-460,662,-875,0
-401,676,-818,0
-331,611,-688,0
-343,584,-719,0
-296,612,-753,0
-277,577,-717,0
-295,435,-658,0
-287,494,-615,0
-383,438,-664,0
-399,388,-695,0
-422,424,-758,0
-418,489,-785,0
-411,562,-757,0
-420,571,-746,0
-405,598,-778,0
-410,639,-746,0
-427,634,-760,0
-430,648,-760,0
-476,648,-797,0
-532,648,-871,0
-458,559,-719,0
-435,457,-628,0
-493,478,-743,0
-524,528,-810,0
-479,475,-765,0
-452,428,-727,0
-479,419,-675,0
-493,474,-643,0
-473,524,-581,0
-462,589,-560,0
-473,663,-576,0
-529,715,-596,0
-545,763,-592,0
-508,755,-617,0
-444,746,-610,0
-415,732,-478,0
-403,667,-420,0
-431,644,-391,0
-380,762,-393,0
-351,742,-305,0
-311,687,-306,0
-355,689,-314,0
-403,664,-266,0
-489,672,-327,0
-648,821,-476,0
-540,880,-577,0
-579,760,-531,0
-537,1006,-587,0
-395,902,-383,0
-367,789,-401,0
-410,850,-334,0
-297,644,-305,0
-250,659,-397,0
-324,792,-496,0
-315,779,-494,0
-332,921,-462,0
-339,967,-531,0
-254,785,-562,0
-286,860,-571,0
-287,794,-595,0
-298,709,-619,0
-357,683,-623,0
-402,609,-559,0
-385,582,-567,0
-425,518,-619,0
-470,457,-638,0
-528,413,-631,0
-546,433,-622,0
-666,386,-561,0
-872,383,-464,0
-621,352,-564,0
-753,386,-616,0
-711,511,-650,0
-651,515,-729,0
-655,780,-953,0
-462,870,-1106,0
-298,698,-917,0
-134,460,-751,0
-210,774,-824,0
7,643,-660,0
-19,516,-711,0
13,444,-616,0
-76,504,-663,0
-108,406,-747,0
-178,481,-787,0
-212,522,-793,0
-256,488,-834,0
-238,478,-891,0
-219,506,-821,0
-156,510,-862,0
-108,509,-761,0
-65,591,-980,0
60,586,-1040,0
153,685,-943,0
167,813,-764,0
187,917,-703,0
210,876,-711,0
193,772,-591,0
183,659,-576,0
190,637,-555,0
223,625,-471,0
275,638,-539,0
310,648,-494,0
346,691,-453,0
388,660,-411,0
436,585,-452,0
474,585,-597,0
487,633,-832,0
454,587,-821,0
436,651,-671,0
445,643,-602,0
475,663,-581,0
502,639,-517,0
535,540,-480,0
558,557,-498,0
580,611,-459,0
595,614,-433,0
606,583,-487,0
605,558,-474,0
592,586,-450,0
613,553,-492,0
614,586,-532,0
610,626,-545,0
600,629,-566,0
584,633,-602,0
567,632,-593,0
549,638,-546,0
548,600,-546,0
556,603,-513,0
559,610,-465,0
566,591,-463,0
581,603,-436,0
599,618,-438,0
607,587,-448,0
597,602,-415,0
603,654,-399,0
621,650,-375,0
654,617,-348,0
677,591,-342,0
717,551,-368,0
716,534,-352,0
727,559,-335,0
734,574,-345,0
721,583,-325,0
730,589,-300,0
742,573,-282,0
758,569,-265,0
766,575,-252,0
769,577,-228,0
776,507,-227,0
784,515,-231,0
795,554,-214,0
788,543,-199,0
772,523,-192,0
768,539,-188,0
766,565,-186,0
764,578,-185,0
760,574,-187,0
760,570,-172,0
775,560,-163,0
778,583,-153,0
774,559,-159,0
771,542,-162,0
770,560,-156,0
771,553,-165,0
767,551,-179,0
766,563,-187,0
765,568,-175,0
780,571,-175,0
795,554,-172,0
794,553,-152,0
804,563,-153,0
811,554,-146,0
811,552,-124,0
800,545,-136,0
787,550,-143,0
783,541,-132,0
778,523,-141,0
779,526,-143,0
782,511,-122,0
789,494,-116,0
817,468,-117,0
850,451,-107,0
869,422,-115,0
864,407,-121,0
844,456,-128,0
887,516,-143,0
922,466,-134,0
952,398,-125,0
928,374,-118,0
881,428,-102,0
869,436,-95,0
833,442,-90,0
836,484,-99,0
827,521,-103,0
804,494,-123,0
765,512,-139,0
732,561,-130,0
715,599,-134,0
706,620,-126,0
685,593,-104,0
676,605,-127,0
690,676,-163,0
688,678,-183,0
648,680,-229,0
609,713,-272,0
591,723,-255,0
569,706,-228,0
591,724,-235,0
639,723,-277,0
648,781,-314,0
593,757,-325,0
570,741,-382,0
535,736,-426,0
515,728,-494,0
454,704,-611,0
357,704,-650,0
274,671,-693,0
217,621,-689,0
193,600,-722,0
180,624,-731,0
168,591,-720,0
178,592,-706,0
169,562,-702,0
139,553,-722,0
120,586,-716,0
72,618,-725,0
44,662,-724,0
18,674,-748,0
11,702,-771,0
18,713,-796,0
50,740,-813,0
103,731,-867,0
168,743,-901,0
202,697,-724,0
261,690,-632,0
261,650,-595,0
165,588,-599,0
61,674,-655,0
-24,677,-662,0
-78,658,-634,0
-107,676,-600,0
-141,676,-588,0
-168,720,-584,0
-182,765,-559,0
-196,774,-580,0
-208,785,-543,0
-198,779,-551,0
-209,798,-605,0
-136,954,-706,0
10,1104,-806,0
61,933,-648,0
60,654,-493,0
-13,556,-409,0
-52,669,-507,0
-127,813,-569,0
-93,907,-583,0
-94,931,-470,0
-111,872,-330,0
-107,818,-283,0
-96,833,-254,0
-121,837,-231,0
-158,954,-241,0
-192,1025,-198,0
-226,963,-190,0
-271,927,-227,0
-313,875,-218,0
-360,883,-183,0
-408,906,-214,0
-507,851,-240,0
-430,961,-272,0
-251,1171,-270,0
-48,1126,-256,0
79,963,-276,0
165,935,-303,0
90,768,-460,0
129,789,-557,0
80,772,-517,0
-12,800,-656,0
-78,765,-658,0
-254,719,-780,0
-279,838,-703,0
-245,608,-675,0
-248,451,-612,0
-260,515,-606,0
-303,584,-562,0
-341,628,-572,0
-388,635,-583,0
-455,654,-662,0
-509,652,-639,0
-565,703,-659,0
-587,697,-668,0
-507,664,-660,0
-444,623,-664,0
-396,556,-627,0
-388,554,-604,0
-377,614,-554,0
-344,601,-508,0
-347,607,-503,0
-390,630,-520,0
-389,628,-468,0
-402,634,-474,0
-424,647,-512,0
-446,649,-533,0
-448,690,-596,0
-458,738,-625,0
-456,743,-665,0
-473,805,-821,0
-370,806,-807,0
-278,802,-691,0
-194,833,-606,0
-131,696,-507,0
-163,641,-513,0
-254,637,-545,0
-304,593,-556,0
-334,561,-589,0
-368,589,-560,0
-401,631,-534,0
-434,668,-538,0
-451,696,-573,0
-448,721,-599,0
-429,794,-641,0
-419,790,-683,0
-456,791,-762,0
-464,882,-841,0
-362,777,-711,0
-334,679,-592,0
-351,680,-588,0
-336,665,-613,0
-297,611,-575,0
-284,585,-556,0
-286,608,-579,0
-287,605,-568,0
-280,598,-575,0
-296,580,-550,0
-336,639,-550,0
-367,653,-577,0
-379,664,-556,0
-376,673,-536,0
-432,707,-592,0
-470,737,-676,0
-460,774,-710,0
-359,798,-640,0
-301,784,-570,0
-246,902,-596,0
-163,860,-608,0
-139,744,-613,0
-192,667,-546,0
-252,637,-487,0
-301,651,-462,0
-357,669,-482,0
-396,696,-521,0
-410,748,-582,0
-396,784,-613,0
-387,744,-567,0
-406,729,-549,0
-418,718,-573,0
-409,683,-581,0
-422,683,-611,0
-443,737,-679,0
-409,715,-699,0
-384,701,-672,0
-365,675,-598,0
-381,630,-584,0
-417,683,-650,0
-410,687,-675,0
-379,679,-714,0
-342,635,-662,0
-328,549,-581,0
-360,558,-588,0
-399,573,-604,0
-414,600,-621,0
-423,639,-637,0
-412,680,-659,0
-400,692,-628,0
-389,687,-571,0
-392,707,-547,0
-391,731,-531,0
-378,746,-513,0
-409,726,-557,0
-418,723,-560,0
-416,689,-549,0
-407,679,-528,0
-398,741,-521,0
-348,777,-547,0
-274,860,-636,0
-225,837,-595,0
-219,770,-532,0
-259,732,-470,0
-292,678,-425,0
-322,676,-437,0
-370,716,-451,0
-372,735,-478,0
-364,758,-513,0
-371,808,-544,0
-366,802,-519,0
-422,831,-618,0
-443,976,-789,0
-330,901,-771,0
-246,746,-603,0
-251,742,-578,0
-231,790,-680,0
-160,744,-702,0
-127,629,-668,0
-141,638,-619,0
-163,671,-649,0
-123,667,-666,0
-99,649,-680,0
-115,689,-715,0
-120,749,-733,0
-152,779,-778,0
-155,788,-748,0
-171,627,-583,0
-247,581,-486,0
-379,649,-533,0
-409,719,-540,0
-382,764,-550,0
-359,826,-549,0
-380,784,-491,0
-379,734,-450,0
-398,772,-407,0
-422,758,-437,0
-445,787,-477,0
-408,862,-477,0
-367,969,-569,0
-366,1033,-709,0
-318,902,-718,0
-286,744,-631,0
-321,605,-560,0
-365,544,-525,0
-402,472,-506,0
-443,540,-547,0
-472,637,-589,0
-469,648,-650,0
-452,760,-681,0
-387,850,-600,0
-335,866,-478,0
-316,927,-437,0
-298,957,-419,0
-275,955,-419,0
-264,860,-419,0
-313,814,-481,0
-329,874,-561,0
-219,944,-584,0
-105,878,-437,0
-52,787,-338,0
-78,751,-370,0
-99,708,-393,0
-151,664,-380,0
-220,659,-402,0
-288,691,-416,0
-349,717,-381,0
-407,798,-375,0
-445,855,-367,0
-485,864,-412,0
-525,940,-505,0
-492,1057,-603,0
-497,958,-624,0
-507,1073,-715,0
-377,981,-627,0
-289,804,-542,0
-273,768,-509,0
-262,793,-530,0
-244,770,-539,0
-201,718,-477,0
-176,692,-387,0
-192,686,-345,0
-200,646,-348,0
-199,606,-290,0
-209,660,-288,0
-244,730,-356,0
-296,824,-381,0
-328,893,-434,0
-379,968,-512,0
-360,1032,-591,0
-336,1084,-560,0
-262,1113,-467,0
-195,946,-406,0
-188,779,-375,0
-209,729,-387,0
-238,677,-392,0
-272,647,-432,0
-320,646,-414,0
-360,702,-344,0
-429,733,-312,0
-490,823,-306,0
-512,838,-368,0
-513,866,-466,0
-503,950,-549,0
-526,1067,-588,0
-397,1066,-588,0
-231,935,-518,0
-225,776,-445,0
-188,772,-372,0
-144,804,-400,0
-140,739,-397,0
-185,713,-318,0
-214,851,-312,0
-264,904,-276,0
-230,877,-236,0
-234,1072,-177,0
-274,866,-191,0
-289,927,-125,0
-290,984,-91,0
-283,969,24,0
-230,1052,12,0
-90,1135,0,0
7,1082,60,0
72,1012,121,0
156,818,123,0
82,567,135,0
12,797,141,0
-60,924,128,0
-56,959,119,0
-72,880,137,0
-112,872,204,0
-180,945,253,0
-230,913,251,0
-276,910,205,0
-263,1085,115,0
-226,1260,38,0
-215,1254,31,0
-133,1363,-31,0
0,1306,-33,0
103,1263,-35,0
90,1020,-24,0
85,990,-2,0
155,894,-80,0
236,1083,-25,0
298,1066,-7,0
327,954,58,0
286,848,111,0
318,772,177,0
360,776,135,0
404,699,83,0
512,692,149,0
546,816,-13,0
730,533,116,0
516,449,238,0
338,1421,143,0
350,1578,24,0
171,1247,-26,0
200,707,174,0
223,855,269,0
216,882,264,0
250,795,389,0
515,1017,447,0
541,824,427,0
339,891,415,0
257,892,360,0
267,850,379,0
139,906,327,0
-71,861,303,0
-119,1120,365,0
-150,1025,261,0
-175,964,224,0
-220,981,154,0
-221,962,90,0
-166,863,58,0
-142,1018,-71,0
-57,1077,-133,0
93,921,-73,0
54,1192,-122,0
-24,796,-137,0
-51,915,-159,0
60,1017,-137,0
92,969,-181,0
151,973,-193,0
133,988,-159,0
86,1014,-126,0
60,929,-133,0
99,891,-112,0
92,924,-106,0
103,950,-100,0
60,975,-89,0
40,1036,-55,0
19,977,-69,0
-16,990,-73,0
46,1010,-112,0
44,939,-99,0
40,986,-125,0
71,913,-153,0
46,948,-179,0
73,1008,-194,0
67,962,-214,0
79,962,-218,0
58,950,-215,0
41,941,-215,0
34,945,-212,0
54,978,-214,0
85,1009,-182,0
-5,932,-154,0
26,1074,-102,0
168,886,33,0
122,587,34,0
292,707,-187,0
465,429,10,0
590,981,114,0
400,1291,-158,0
597,1016,-40,0
445,1853,-3,0
172,1113,-299,0
327,965,118,0
296,1198,-122,0
294,1207,-70,0
253,1236,44,0
151,1580,-90,0
117,1473,-215,0
46,1403,-209,0
20,1145,-222,0
90,948,-109,0
94,673,117,0
-5,857,173,0
-77,422,-34,0
-222,642,344,0
-314,849,384,0
-392,536,382,0
-414,517,560,0
-350,638,566,0
-518,645,425,0
-491,700,443,0
-463,526,439,0
-419,501,649,0
-427,635,818,0
-495,682,659,0
-403,216,654,0
-333,462,863,0
-326,513,909,0
-365,528,873,0
-315,439,829,0
-334,531,727,0
-297,747,921,0
-345,142,1182,0
-361,411,1035,0
-449,434,805,0
-279,120,877,0
-350,131,784,0
-287,98,958,0
-350,226,1133,0
-373,301,802,0
-451,435,1104,0
-420,240,944,0
-465,213,841,0
-508,177,773,0
-497,275,684,0
-411,263,589,0
-557,9,856,0
-488,325,867,0
-670,218,890,0
-576,263,785,0
-724,193,765,0
-683,218,629,0
-649,293,787,0
-539,-83,812,0
-430,188,960,0
-340,169,781,0
-413,194,899,0
-400,404,640,0
-438,674,578,0
-569,780,498,0
-769,702,572,0
-710,394,722,0
-625,195,685,0
-541,278,687,0
-477,-262,595,0
-385,163,488,0
-219,248,366,0
14,580,413,0
82,1326,197,0
-249,572,-207,0
-53,681,-223,0
404,954,456,0
815,1702,1014,0
600,1086,884,0
790,907,1009,0
914,616,967,0
1014,797,876,0
955,951,741,0
768,856,603,0
303,1039,370,0
-106,1214,144,0
-300,958,85,0
-228,689,234,0
-90,490,458,0
-2,540,655,0
241,-250,614,0
264,1134,864,0
60,1024,536,0
-220,587,-86,0
-300,1067,120,0
-158,1034,180,0
-406,1067,143,0
-389,1045,163,0
-92,700,300,0
-159,1111,413,0
-260,973,153,0
-383,978,113,0
-409,890,201,0
-349,872,292,0
-310,816,334,0
-253,802,356,0
-296,870,345,0
-339,844,323,0
-378,891,312,0
-380,819,307,0
-344,865,378,0
-317,867,392,0
-281,896,406,0
-275,912,417,0
-298,920,438,0
-342,906,478,0
-403,981,464,0
-424,789,534,0
-397,919,597,0
-350,702,707,0
-297,624,774,0
-286,506,883,0
-283,333,844,0
-297,221,861,0
-299,138,869,0
-324,58,877,0
-298,24,942,0
-339,28,875,0
-308,-49,942,0
-318,-109,902,0
-282,-146,1006,0
-340,-183,910,0
-342,-242,904,0
-314,-308,907,0
-335,-213,931,0
-379,-276,832,0
-356,-334,895,0
-373,-359,843,0
-344,-362,889,0
-376,-338,849,0
-386,-403,885,0
-396,-447,848,0
-412,-421,768,0
-412,-417,812,0
-405,-511,768,0
-407,-480,747,0
-412,-499,761,0
-424,-524,743,0
-397,-551,781,0
-448,-452,728,0
-440,-510,783,0
-413,-596,740,0
-434,-535,780,0
-440,-486,783,0
-440,-535,759,0
-423,-598,726,0
-425,-574,741,0
-442,-504,726,0
-455,-499,728,0
-397,-621,759,0
-442,-495,763,0
-454,-495,747,0
-414,-630,739,0
-444,-501,755,0
-462,-441,769,0
-406,-582,779,0
-438,-457,777,0
-425,-495,774,0
-400,-553,772,0
-421,-483,794,0
-443,-474,781,0
-422,-599,792,0
-466,-448,816,0
-462,-469,809,0
-446,-474,799,0
-415,-499,804,0
-425,-408,808,0
-410,-418,803,0
-382,-466,822,0
-407,-351,839,0
-388,-391,843,0
-385,-345,850,0
-382,-316,858,0
-359,-338,868,0
-351,-257,889,0
-357,-292,891,0
-332,-241,906,0
-359,-200,899,0
-324,-169,919,0
-342,-150,902,0
-329,-142,941,0
-316,-118,931,0
-304,-46,894,0
-289,-7,909,0
-291,21,889,0
-268,108,846,0
-318,103,796,0
-313,143,791,0
-330,158,637,0
-300,294,625,0
-256,602,526,0
-265,682,472,0
-110,1080,565,0
-102,1073,415,0
-15,1263,583,0
-8,1136,488,0
-12,1112,578,0
-40,1076,412,0
-14,1267,616,0
-50,748,306,0
-1,1091,357,0
94,794,483,0
124,933,449,0
162,1032,386,0
227,1059,411,0
299,701,304,0
419,778,241,0
351,880,185,0
41,1015,264,0
-349,1009,241,0
-569,974,198,0
-471,893,738,0
-266,743,878,0
25,176,896,0
469,744,1125,0
445,338,896,0
633,151,599,0
736,257,641,0
907,270,633,0
1104,469,767,0
841,535,748,0
729,328,657,0
824,608,743,0
936,548,1045,0
783,883,1204,0
444,594,1240,0
160,699,1212,0
-54,295,1050,0
-179,129,804,0
-302,213,616,0
-328,207,496,0
-441,128,324,0
-361,550,473,0
-302,613,633,0
-392,280,537,0
-406,259,557,0
-278,395,849,0
-237,228,949,0
-277,287,892,0
-226,410,1016,0
-205,208,1130,0
-292,307,970,0
-377,247,871,0
-261,249,933,0
-197,189,1121,0
-222,85,1043,0
-248,217,791,0
-231,149,879,0
-220,168,854,0
-220,368,686,0
-175,301,831,0
-217,326,874,0
-256,628,869,0
-369,394,960,0
-304,218,970,0
-335,282,919,0
-299,339,929,0
-330,305,1049,0
-320,240,1004,0
-321,269,962,0
-276,280,944,0
-246,306,911,0
-294,43,961,0
-255,124,969,0
-296,155,894,0
-288,103,937,0
-256,72,983,0
-247,120,951,0
-291,88,895,0
-279,221,892,0
-234,173,950,0
-238,43,832,0
-265,124,793,0
-250,335,825,0
-303,498,831,0
-266,575,865,0
-303,575,797,0
-309,732,801,0
-311,708,855,0
-330,689,779,0
-305,720,741,0
-326,691,728,0
-303,741,651,0
-285,727,679,0
-251,655,684,0
-250,636,680,0
-259,673,712,0
-265,574,800,0
-287,609,730,0
-299,636,701,0
-283,659,682,0
-289,634,644,0
-271,589,681,0
-247,644,689,0
-259,577,663,0
-277,602,655,0
-293,699,707,0
-302,710,685,0
-282,680,734,0
-277,610,763,0
-249,758,723,0
-274,680,672,0
-267,744,639,0
-277,822,622,0
-283,766,591,0
-279,785,548,0
-272,707,568,0
-269,750,615,0
-283,792,554,0
-276,741,555,0
-298,803,546,0
-331,676,494,0
-284,705,534,0
-255,767,628,0
-269,795,620,0
-269,764,571,0
-269,713,576,0
-264,754,596,0
-294,795,581,0
-281,786,572,0
-270,735,565,0
-262,769,611,0
-257,817,591,0
-268,833,554,0
-259,799,494,0
-264,780,495,0
-255,808,508,0
-280,867,495,0
-283,824,447,0
-279,762,424,0
-272,813,481,0
-264,856,547,0
-272,766,519,0
-282,835,529,0
-272,852,520,0
-268,734,510,0
-257,743,529,0
-259,817,528,0
-247,816,509,0
-210,781,572,0
-219,810,557,0
-216,814,542,0
-226,747,477,0
-241,862,524,0
-228,876,579,0
-225,843,502,0
-207,840,475,0
-197,832,470,0
-203,932,450,0
-209,851,416,0
-203,828,447,0
-181,869,498,0
-166,817,480,0
-157,837,468,0
-152,786,466,0
-150,873,498,0
-145,864,482,0
-130,799,503,0
-107,866,509,0
-98,845,531,0
-95,879,521,0
-74,824,531,0
-116,795,531,0
-108,762,598,0
-90,727,668,0
-104,683,653,0
-114,595,630,0
-173,750,711,0
-202,685,720,0
-214,621,652,0
-251,805,650,0
-126,758,799,0
-3,467,906,0
-147,952,591,0
-209,885,670,0
-215,770,859,0
-316,633,885,0
-382,630,1036,0
-395,491,1031,0
-378,268,947,0
-413,286,948,0
-493,330,818,0
-558,294,732,0
-606,246,718,0
-637,307,666,0
-642,290,643,0
-577,145,691,0
-589,22,677,0
-592,220,724,0
-597,150,731,0
-590,-42,682,0
-533,38,768,0
-451,309,928,0
-454,133,802,0
-348,164,725,0
-310,395,707,0
-272,188,678,0
-135,210,1010,0
-193,334,1220,0
-267,965,1378,0
-406,564,976,0
-403,-69,567,0
-418,-55,762,0
-344,213,1221,0
-242,436,878,0
-219,114,916,0
-261,330,1402,0
-321,138,758,0
-362,132,693,0
-259,215,794,0
-219,40,812,0
16,123,585,0
29,626,1259,0
23,316,1186,0
-28,203,1233,0
-35,-47,1003,0
-61,-62,1043,0
-224,-51,867,0
-396,277,718,0
-597,662,458,0
-602,1202,312,0
-476,1032,80,0
-335,1052,-422,0
-4,1368,-1,0
24,1385,-103,0
142,963,-35,0
38,1059,-337,0
252,869,-12,0
262,1203,453,0
0,955,-116,0
235,834,61,0
180,992,-195,0
169,1216,-138,0
94,931,49,0
98,903,134,0
-5,951,-30,0
-45,939,32,0
-22,980,-68,0
84,1118,-191,0
98,1068,-220,0
146,952,-200,0
159,982,-240,0
218,1006,-86,0
233,899,-40,0
224,895,56,0
269,991,164,0
242,819,177,0
272,796,332,0
201,706,611,0
162,904,528,0
135,910,434,0
287,851,503,0
292,980,430,0
219,1062,382,0
258,942,413,0
268,696,428,0
256,698,512,0
269,848,486,0
279,788,455,0
290,767,482,0
286,807,496,0
266,734,481,0
277,736,506,0
284,813,517,0
287,790,501,0
301,865,483,0
255,846,489,0
267,771,535,0
379,630,571,0
454,607,598,0
617,941,293,0
-26,897,243,0
274,819,19,0
187,555,-65,0
164,664,109,0
276,1134,209,0
576,477,-107,0
784,877,-22,0
821,1135,-123,0
716,1200,-209,0
602,1089,-638,0
551,1329,-463,0
513,1342,-424,0
549,880,-404,0
502,772,-373,0
381,840,-457,0
261,882,-483,0
239,898,-518,0
118,850,-521,0
211,993,-412,0
188,839,-484,0
245,889,-406,0
283,748,-321,0
205,813,-475,0
287,779,-523,0
379,968,-407,0
187,882,-403,0
121,759,-495,0
3,676,-562,0
-37,610,-599,0
-94,570,-726,0
-56,666,-821,0
-30,697,-792,0
-78,635,-839,0
-87,583,-842,0
-112,434,-845,0
-159,466,-818,0
-219,536,-854,0
-261,640,-858,0
-279,600,-903,0
-302,561,-873,0
-345,583,-964,0
-395,660,-1105,0
-259,659,-901,0
-196,509,-642,0
-201,483,-626,0
-264,580,-719,0
-239,667,-897,0
-175,646,-882,0
-103,545,-724,0
-88,528,-631,0
-97,566,-625,0
-105,604,-617,0
-84,668,-601,0
-87,749,-623,0
-55,843,-607,0
-3,860,-518,0
-31,832,-475,0
-119,867,-520,0
-202,921,-543,0
-203,972,-407,0
-190,941,-345,0
-192,951,-340,0
-161,854,-293,0
-169,804,-293,0
-216,778,-301,0
-273,756,-264,0
-312,756,-259,0
-333,809,-231,0
-318,875,-182,0
-305,940,-184,0
-271,994,-141,0
-243,951,-129,0
-213,1063,-147,0
-152,1053,-205,0
-197,1408,-168,0
-161,1527,-201,0
-175,720,-174,0
-60,756,49,0
-167,832,72,0
-138,993,-17,0
-164,971,-68,0
-121,846,-78,0
-104,809,-103,0
-85,869,-52,0
-75,884,-23,0
-42,992,-52,0
-30,1080,12,0
-73,1126,100,0
-27,1069,177,0
-29,982,277,0
16,838,418,0
39,685,589,0
102,476,756,0
178,563,921,0
300,503,954,0
286,389,879,0
235,514,884,0
292,524,915,0
351,460,892,0
372,382,817,0
303,372,754,0
231,459,746,0
239,460,701,0
209,491,711,0
229,551,736,0
197,581,683,0
94,734,556,0
-4,955,422,0
-63,1192,264,0
-17,1322,100,0
59,1236,-31,0
87,1176,-115,0
87,1030,-165,0
23,856,-268,0
-124,986,-331,0
-136,1156,-422,0
-138,1147,-480,0
-78,986,-418,0
-132,831,-400,0
-187,824,-406,0
-214,789,-361,0
-226,882,-364,0
-262,997,-378,0
-242,880,-490,0
-204,906,-468,0
-212,837,-480,0
-168,890,-434,0
-170,918,-394,0
-124,874,-396,0
-32,999,-397,0
15,1100,-291,0
5,1062,-215,0
-28,953,-199,0
-64,899,-165,0
-119,926,-176,0
-170,920,-145,0
-222,953,-143,0
-285,898,-145,0
-297,883,-158,0
-291,985,-112,0
-253,993,-56,0
-245,962,-62,0
-254,810,16,0
-282,831,39,0
-327,922,58,0
-335,898,86,0
-369,896,41,0
-469,1014,6,0
-412,1082,-82,0
-343,848,-39,0
-343,900,-76,0
-341,937,-103,0
-263,955,-83,0
-270,855,-44,0
-299,889,-17,0
-308,835,27,0
-340,802,26,0
-348,846,16,0
-334,802,30,0
-356,835,43,0
-385,909,0,0
-416,884,-6,0
-421,952,-42,0
-411,919,-35,0
-379,941,-60,0
-410,993,-139,0
-387,917,-224,0
-294,1048,-178,0
-224,946,-132,0
-220,956,-131,0
-208,955,-169,0
-169,937,-149,0
-175,912,-120,0
-178,800,-73,0
-196,786,-83,0
-204,885,-101,0
-206,866,-84,0
-237,913,-111,0
-205,950,-95,0
-206,861,-118,0
-180,980,-210,0
-89,934,-225,0
-44,961,-285,0
-19,967,-369,0
38,856,-410,0
41,865,-418,0
-31,955,-410,0
-56,1001,-400,0
-94,940,-365,0
-81,1009,-375,0
-86,925,-345,0
-94,890,-344,0
-64,935,-355,0
-59,860,-376,0
-51,902,-412,0
-65,883,-443,0
-94,904,-450,0
-109,978,-455,0
-131,986,-433,0
-161,989,-417,0
-193,931,-404,0
-237,903,-407,0
-261,894,-427,0
-288,827,-376,0
-247,784,-415,0
-219,802,-389,0
-133,815,-476,0
-107,833,-422,0
-61,820,-487,0
-52,800,-512,0
-63,827,-498,0
-87,843,-476,0
-87,864,-488,0
-82,861,-430,0
-111,906,-417,0
-115,889,-427,0
-77,844,-346,0
-83,848,-407,0
-122,1070,-384,0
-127,930,-384,0
-133,910,-384,0
-135,858,-379,0
