AccX [mg],AccY,AccZ,Ground Truth
12,-152,906,0
-11,-172,930,0
-5,-124,998,0
14,-108,1065,0
9,-76,1099,0
-12,-99,1082,0
-25,-134,1047,0
-10,-163,1024,0
19,-163,1022,0
45,-170,1012,0
33,-101,1036,0
-60,-90,1039,0
-60,0,1131,0
-8,71,1170,0
80,20,1122,0
148,-42,1033,0
204,-26,994,0
284,-17,946,0
286,36,883,0
219,39,864,0
83,8,833,0
-32,-23,876,0
-65,-44,920,0
-51,-31,969,0
-53,-40,997,0
-73,-84,1009,0
-84,-147,997,0
-86,-174,1011,0
-93,-165,1031,0
-91,-111,1070,0
-69,-32,1107,0
-90,77,1219,0
-3,129,1263,0
72,109,1170,0
23,41,1019,0
-76,77,932,0
-152,188,991,0
-63,280,1102,0
55,181,1021,0
50,89,926,0
11,-14,822,0
-17,-72,769,0
-19,-72,770,0
18,10,892,0
58,-3,994,0
102,-22,1000,0
149,2,1043,0
192,-8,1050,0
219,-39,991,0
244,45,1040,0
382,59,816,0
384,222,502,0
491,305,437,0
676,825,573,0
590,765,580,0
561,327,434,0
658,153,491,0
922,485,787,0
1067,622,745,0
1027,920,544,0
841,1055,837,0
669,568,918,0
586,447,800,0
598,723,743,0
503,361,558,0
679,486,663,0
615,347,677,0
754,828,340,0
710,724,247,0
591,674,142,0
613,647,71,0
843,739,252,0
823,769,318,0
598,801,40,0
301,736,140,0
347,386,37,0
432,666,46,0
489,783,-76,0
383,916,177,0
324,772,374,0
468,767,563,0
453,857,908,0
573,677,955,0
634,522,807,0
554,318,808,0
438,96,998,0
453,-13,1022,0
444,192,1037,0
334,127,775,0
404,354,727,0
304,94,664,0
476,221,485,0
482,210,710,0
531,241,794,0
635,340,754,0
503,226,788,0
467,227,811,0
502,101,786,0
588,160,834,0
587,175,776,0
643,105,769,0
807,157,1092,0
852,467,872,0
728,301,602,0
614,310,435,0
618,572,506,0
702,546,546,0
765,673,440,0
683,491,316,0
610,400,356,0
639,449,363,0
663,604,305,0
709,756,286,0
689,619,277,0
624,510,170,0
591,601,77,0
693,781,49,0
700,636,81,0
716,565,55,0
739,617,27,0
819,689,-22,0
858,665,-7,0
954,613,104,0
933,447,142,0
965,551,170,0
911,646,199,0
765,495,178,0
727,572,134,0
681,584,47,0
644,519,80,0
645,405,184,0
705,473,295,0
815,520,418,0
911,383,371,0
908,217,410,0
1003,38,585,0
1074,102,537,0
944,355,362,0
784,560,130,0
652,681,-236,0
406,811,-367,0
541,760,-285,0
511,650,-121,0
675,784,2,0
607,681,-146,0
590,618,-196,0
669,617,-63,0
611,816,-28,0
661,644,11,0
722,767,87,0
728,822,-12,0
678,685,21,0
742,658,116,0
699,630,273,0
722,533,387,0
672,451,459,0
683,562,453,0
700,513,529,0
829,541,578,0
932,564,450,0
1062,547,460,0
1148,373,484,0
1187,184,346,0
1019,404,388,0
835,435,454,0
635,466,368,0
470,419,364,0
391,574,240,0
355,618,155,0
381,503,135,0
491,676,276,0
511,692,313,0
527,889,198,0
430,835,95,0
358,882,37,0
373,1195,147,0
541,921,180,0
621,725,272,0
758,831,361,0
943,689,394,0
772,477,562,0
637,802,203,0
519,758,281,0
773,799,296,0
803,589,440,0
676,265,379,0
592,78,349,0
656,348,468,0
673,553,537,0
650,493,388,0
629,780,374,0
675,565,413,0
682,379,504,0
662,475,459,0
663,476,460,0
836,626,586,0
920,725,557,0
832,383,536,0
764,80,482,0
738,208,724,0
667,654,844,0
554,480,688,0
425,265,611,0
380,297,616,0
407,339,701,0
470,366,767,0
482,381,758,0
392,277,706,0
307,287,701,0
412,477,758,0
654,501,840,0
767,469,823,0
792,616,965,0
628,436,965,0
418,491,679,0
635,646,546,0
682,513,331,0
697,284,468,0
629,508,509,0
603,663,526,0
505,411,478,0
437,353,511,0
446,508,536,0
546,651,575,0
625,614,538,0
631,475,503,0
574,374,490,0
616,498,546,0
820,703,563,0
1029,855,601,0
988,487,551,0
862,229,406,0
797,117,574,0
732,559,751,0
709,525,729,0
565,315,572,0
449,125,529,0
415,186,532,0
454,233,619,0
537,317,689,0
549,181,582,0
466,137,559,0
530,262,703,0
523,310,583,0
480,312,958,0
531,220,1051,0
447,341,1192,0
480,440,1019,0
475,386,954,0
464,455,699,0
537,464,611,0
557,432,751,0
607,314,840,0
580,413,789,0
552,260,774,0
547,217,714,0
512,422,757,0
530,416,840,0
518,427,823,0
515,428,814,0
487,425,813,0
415,583,830,0
322,509,852,0
299,465,822,0
282,512,784,0
388,635,745,0
463,719,730,0
498,494,700,0
525,423,683,0
521,439,746,0
455,459,759,0
396,466,833,0
378,341,813,0
411,406,783,0
424,385,708,0
419,374,746,0
415,325,767,0
399,317,785,0
353,336,757,0
295,368,812,0
281,346,841,0
367,307,812,0
427,362,902,0
468,464,810,0
495,492,869,0
591,499,856,0
551,425,796,0
552,455,704,0
568,603,596,0
488,635,539,0
369,545,576,0
433,571,664,0
556,778,666,0
567,666,626,0
508,651,501,0
444,582,539,0
446,831,499,0
351,910,570,0
375,623,549,0
438,708,469,0
626,601,216,0
790,327,222,0
824,402,341,0
808,359,402,0
765,464,528,0
700,478,533,0
705,493,501,0
740,406,484,0
918,603,350,0
855,511,344,0
789,233,321,0
899,131,450,0
1038,372,619,0
894,628,536,0
634,355,444,0
552,114,478,0
614,86,553,0
711,138,614,0
737,161,637,0
633,177,645,0
611,373,635,0
566,325,716,0
550,325,749,0
603,237,684,0
728,280,672,0
786,300,655,0
771,369,698,0
878,350,744,0
999,550,531,0
919,223,441,0
716,64,294,0
686,340,242,0
772,478,521,0
805,510,577,0
734,444,332,0
643,177,278,0
709,257,362,0
806,551,356,0
846,673,300,0
866,491,325,0
935,446,389,0
1023,567,362,0
958,595,288,0
838,628,245,0
828,705,223,0
790,456,167,0
698,184,271,0
846,306,560,0
908,567,643,0
785,428,481,0
669,285,410,0
561,207,378,0
575,343,432,0
662,384,546,0
677,306,568,0
700,329,572,0
678,314,610,0
646,397,631,0
617,486,693,0
572,425,668,0
561,298,650,0
619,350,675,0
612,358,625,0
584,308,639,0
736,515,636,0
1089,651,626,0
1122,622,480,0
809,260,470,0
700,297,367,0
661,598,141,0
702,610,252,0
808,436,423,0
790,472,378,0
711,485,311,0
625,487,329,0
608,547,417,0
655,654,422,0
648,561,366,0
662,498,385,0
749,560,429,0
678,497,369,0
613,470,314,0
612,501,329,0
643,497,369,0
843,756,368,0
1082,627,362,0
1132,382,328,0
1061,318,513,0
1015,517,726,0
894,574,558,0
676,256,482,0
620,313,488,0
576,288,582,0
548,306,612,0
596,304,607,0
630,302,582,0
618,297,602,0
540,261,605,0
492,303,673,0
499,284,726,0
556,289,692,0
572,170,718,0
692,325,722,0
724,495,700,0
627,339,641,0
623,238,629,0
816,467,547,0
1093,600,574,0
1057,479,652,0
731,465,460,0
418,345,386,0
330,190,413,0
444,439,524,0
654,624,450,0
742,553,328,0
788,458,345,0
949,628,402,0
800,584,304,0
692,572,257,0
717,555,356,0
784,549,377,0
801,469,390,0
788,352,396,0
767,435,395,0
815,477,381,0
877,637,256,0
779,718,195,0
745,632,127,0
743,695,147,0
844,961,86,0
890,916,101,0
899,602,212,0
1051,774,201,0
963,192,170,0
917,62,359,0
824,125,564,0
683,190,723,0
601,234,602,0
482,160,610,0
414,228,633,0
401,174,699,0
368,85,849,0
329,160,820,0
296,49,945,0
295,104,986,0
288,118,1000,0
220,46,1128,0
158,123,1101,0
183,92,1124,0
167,161,1146,0
143,169,1131,0
118,93,985,0
-8,92,935,0
-80,89,973,0
-44,95,954,0
-2,83,886,0
-55,95,814,0
-126,73,743,0
-175,61,780,0
-157,83,847,0
-122,106,846,0
-71,153,852,0
-61,111,949,0
-54,204,1107,0
-24,185,1211,0
52,256,1301,0
90,382,1300,0
220,372,1249,0
188,246,1128,0
146,218,1060,0
105,190,991,0
102,181,943,0
95,130,906,0
69,63,855,0
-20,50,811,0
-107,38,941,0
-151,66,973,0
-65,-64,935,0
53,-83,993,0
165,-140,959,0
223,-65,965,0
246,-55,1083,0
139,89,1114,0
136,105,1218,0
117,184,1060,0
61,61,987,0
43,136,1013,0
-25,346,938,0
-4,268,947,0
53,68,898,0
120,-103,832,0
144,-119,704,0
220,-13,777,0
249,-35,908,0
289,-207,880,0
332,-166,966,0
355,-131,1147,0
377,-87,1145,0
450,-139,1185,0
600,-90,1218,0
736,-164,1192,0
776,-73,1083,0
608,100,968,0
530,137,870,0
397,382,856,0
238,268,649,0
60,74,527,0
-78,-50,419,0
-103,15,456,0
-128,62,623,0
-80,28,840,0
4,47,1061,0
50,-123,1250,0
81,-89,1333,0
40,110,1386,0
-86,181,1425,0
-62,372,1453,0
38,380,1328,0
-21,222,1081,0
-88,341,988,0
-79,357,898,0
-46,257,809,0
-11,193,754,0
0,131,710,0
-37,121,725,0
-59,125,822,0
-27,116,923,0
-8,75,965,0
30,53,996,0
26,54,1045,0
66,63,1123,0
177,48,1144,0
212,45,1252,0
413,186,1202,0
361,260,1105,0
260,281,964,0
217,342,913,0
202,216,846,0
143,157,769,0
87,153,778,0
28,97,782,0
9,59,809,0
32,62,868,0
72,75,939,0
113,82,999,0
120,45,991,0
76,72,1048,0
56,130,1143,0
68,122,1153,0
-59,119,1173,0
-87,309,1280,0
47,375,1260,0
-82,278,1125,0
-106,367,1050,0
-75,390,974,0
-23,299,872,0
2,191,788,0
18,129,733,0
-10,91,723,0
-20,68,778,0
-23,87,851,0
-3,89,920,0
6,78,963,0
-36,107,1037,0
8,195,1198,0
167,185,1201,0
196,97,1233,0
321,209,1289,0
326,386,1097,0
177,400,967,0
245,335,877,0
201,161,724,0
112,91,685,0
28,96,698,0
-13,70,763,0
-1,30,868,0
43,112,946,0
80,111,1000,0
36,99,1022,0
-69,207,1105,0
-96,257,1153,0
-188,268,1210,0
-92,562,1391,0
66,399,1209,0
-69,280,1049,0
-109,447,1073,0
-84,356,931,0
-73,271,841,0
-56,220,815,0
-60,134,757,0
-96,74,744,0
-154,76,808,0
-140,95,877,0
-89,87,927,0
-39,29,961,0
-64,80,1054,0
10,84,1139,0
116,30,1131,0
163,131,1236,0
246,208,1220,0
263,243,1103,0
212,282,1027,0
225,269,952,0
215,182,831,0
182,139,745,0
101,81,684,0
0,55,691,0
-59,94,798,0
-26,193,951,0
43,160,1009,0
88,66,1009,0
58,135,1062,0
-18,115,1105,0
1,168,1182,0
-31,170,1201,0
-71,325,1281,0
50,455,1258,0
-79,238,1050,0
-117,405,1083,0
-62,416,1022,0
25,256,897,0
31,149,798,0
23,97,729,0
0,-45,695,0
-32,-25,731,0
-42,146,838,0
-15,220,931,0
2,146,960,0
-30,161,1043,0
-12,284,1168,0
107,240,1200,0
165,162,1316,0
288,308,1310,0
240,325,1165,0
158,308,990,0
180,371,887,0
197,303,794,0
158,151,699,0
95,111,652,0
35,133,675,0
-27,142,736,0
-46,114,819,0
-42,171,888,0
-75,252,984,0
-71,237,1127,0
-46,151,1208,0
0,152,1258,0
-14,134,1225,0
-50,136,1363,0
-3,335,1331,0
-198,404,1028,0
-180,427,961,0
-63,447,952,0
-27,299,814,0
-20,190,744,0
-4,171,723,0
-17,108,725,0
-39,66,765,0
-59,71,843,0
-73,134,931,0
-59,122,993,0
-82,120,1050,0
-59,248,1175,0
70,260,1236,0
86,221,1271,0
275,388,1258,0
281,357,1067,0
165,370,966,0
147,402,911,0
149,314,787,0
114,217,702,0
41,189,656,0
-26,218,644,0
-94,158,708,0
-106,134,798,0
-64,238,940,0
-22,272,1086,0
-41,222,1145,0
-77,294,1217,0
-114,332,1211,0
-224,417,1275,0
-98,493,1232,0
-175,362,1042,0
-253,488,1080,0
-139,500,1017,0
-79,352,864,0
-56,244,771,0
-74,159,689,0
-141,115,642,0
-185,90,665,0
-153,167,740,0
-73,258,871,0
68,310,960,0
115,233,1036,0
169,305,1163,0
223,305,1203,0
231,257,1228,0
265,292,1229,0
266,296,1099,0
194,354,1032,0
181,347,970,0
193,277,862,0
189,198,749,0
130,165,673,0
36,170,670,0
-64,190,726,0
-94,200,817,0
-68,252,941,0
-79,199,995,0
-144,223,1079,0
-135,324,1212,0
-79,312,1217,0
-170,365,1278,0
22,492,1299,0
21,240,978,0
-88,301,932,0
-109,341,939,0
-61,250,853,0
3,140,822,0
8,126,838,0
-14,128,825,0
-27,119,846,0
13,122,901,0
80,115,922,0
93,115,957,0
142,185,1076,0
265,113,1046,0
160,110,1087,0
282,345,1204,0
293,340,1158,0
315,277,1107,0
291,234,993,0
230,96,821,0
107,84,722,0
-1,151,727,0
-68,103,777,0
-87,76,866,0
-32,120,980,0
8,89,1019,0
-39,87,1080,0
-50,175,1163,0
-78,180,1137,0
-159,317,1254,0
-18,315,1169,0
-118,224,1027,0
-176,340,1021,0
-58,352,987,0
34,117,817,0
26,118,800,0
19,147,800,0
-2,95,817,0
23,107,901,0
95,141,971,0
126,98,980,0
86,244,1055,0
222,179,1053,0
79,142,1162,0
284,420,1295,0
281,291,1191,0
289,311,1166,0
263,232,1008,0
194,74,786,0
57,52,688,0
-38,128,704,0
-85,100,736,0
-65,92,821,0
12,126,953,0
99,99,997,0
21,40,1019,0
-45,142,1125,0
-14,133,1107,0
-155,164,1194,0
-31,326,1258,0
-103,123,1081,0
-198,306,1079,0
-122,403,1104,0
62,219,947,0
51,133,845,0
5,117,802,0
-25,87,790,0
-50,62,854,0
-8,60,920,0
24,89,975,0
40,108,1035,0
133,121,1088,0
73,61,1120,0
280,299,1287,0
330,53,1087,0
129,175,1041,0
143,290,1072,0
198,173,956,0
185,94,842,0
67,97,805,0
0,100,762,0
-48,80,772,0
-36,66,863,0
45,153,977,0
108,96,1012,0
81,22,1021,0
13,117,1112,0
36,102,1137,0
-50,72,1161,0
12,273,1297,0
131,145,1172,0
1,83,993,0
-109,251,961,0
-106,336,989,0
24,221,911,0
78,172,892,0
67,145,894,0
-13,23,855,0
-58,63,883,0
-62,55,916,0
-42,23,941,0
-38,68,984,0
43,109,1090,0
191,78,1099,0
82,58,1130,0
153,158,1185,0
211,200,1156,0
202,268,1097,0
253,232,1011,0
176,52,884,0
92,26,759,0
12,86,763,0
-29,19,776,0
-14,22,852,0
49,57,969,0
137,101,1047,0
138,31,1023,0
37,71,1069,0
51,109,1128,0
-64,38,1130,0
-23,237,1252,0
38,97,1077,0
-153,118,958,0
-253,315,1031,0
-120,343,1087,0
33,143,973,0
14,123,924,0
-58,98,848,0
-121,105,836,0
-92,102,873,0
-32,115,918,0
0,106,953,0
-9,168,1037,0
90,201,1097,0
14,28,1028,0
87,194,1140,0
172,202,1118,0
96,206,1123,0
124,233,1114,0
122,127,982,0
48,-4,804,0
-48,20,743,0
-109,64,759,0
-128,67,845,0
-63,136,971,0
-2,76,1031,0
-68,142,1143,0
1,111,1135,0
-162,174,1169,0
-45,386,1276,0
-53,105,1052,0
-189,265,1028,0
-229,405,1055,0
-73,306,986,0
-9,158,913,0
-50,157,878,0
-98,79,820,0
-67,43,831,0
-24,10,857,0
26,-20,904,0
5,-8,974,0
67,27,1091,0
187,-74,1134,0
77,-155,1211,0
157,109,1252,0
75,207,1090,0
148,99,1015,0
106,15,965,0
49,-138,809,0
-12,-215,814,0
-47,-223,828,0
-65,-207,846,0
-42,-181,976,0
-33,-92,1013,0
-47,-150,970,0
-113,-144,1002,0
-160,-124,1069,0
-198,-106,1115,0
-281,-88,1205,0
-292,-80,1190,0
-409,-95,1088,0
-458,-31,1067,0
-263,108,1083,0
-54,41,929,0
-67,-34,773,0
-86,-61,655,0
-143,-118,664,0
-184,-49,835,0
-147,-85,916,0
-147,-226,1029,0
-95,-239,1262,0
9,-47,1272,0
-155,-43,1188,0
-149,313,1257,0
-102,252,1166,0
-73,188,1107,0
-132,70,960,0
-128,-59,841,0
-153,-79,858,0
-169,-89,826,0
-178,-113,823,0
-161,-102,927,0
-101,-125,964,0
-87,-185,900,0
-174,-182,947,0
-181,-123,1124,0
-225,-148,1116,0
-189,-35,1251,0
-178,-84,1183,0
-240,-86,1088,0
-241,46,1112,0
-92,48,1030,0
1,-37,869,0
-14,-72,799,0
-31,-113,794,0
-22,-123,836,0
-5,-82,939,0
15,-85,1015,0
37,-85,1088,0
123,-72,1119,0
42,-144,987,0
58,-73,1108,0
55,100,1182,0
101,155,1220,0
101,112,1171,0
-6,-2,1061,0
-83,-159,903,0
-109,-90,816,0
-88,-60,784,0
-83,-20,857,0
-80,-16,926,0
-94,-77,935,0
-111,-176,996,0
-64,-206,1090,0
-145,-136,1244,0
-11,79,1328,0
-89,-9,1082,0
-284,45,1026,0
-285,149,1073,0
-142,144,1012,0
-74,43,896,0
-72,-29,802,0
-90,-76,779,0
-75,-119,805,0
-41,-67,894,0
-10,-71,980,0
-16,-35,1075,0
36,28,1132,0
-29,-75,1074,0
11,92,1210,0
50,122,1243,0
68,150,1223,0
107,101,1130,0
65,22,936,0
-29,-55,795,0
-82,-58,767,0
-91,-43,783,0
-80,-3,896,0
-46,42,1005,0
-25,17,1028,0
-94,-14,1068,0
-124,-34,1072,0
-236,-28,1108,0
-44,142,1229,0
-145,53,1093,0
-257,182,1127,0
-227,257,1174,0
-123,153,1008,0
-101,2,797,0
-123,-27,752,0
-138,-23,752,0
-140,-34,811,0
-105,12,896,0
-53,76,991,0
-72,152,1097,0
-11,179,1163,0
20,23,1065,0
-14,60,1163,0
139,91,1214,0
103,209,1151,0
179,227,1134,0
184,210,1062,0
134,132,924,0
43,40,816,0
-10,20,769,0
-55,-25,760,0
-59,-48,819,0
-29,1,951,0
-3,31,1047,0
-38,0,1085,0
-72,66,1163,0
-117,100,1161,0
-148,228,1316,0
38,167,1199,0
-121,6,1022,0
-238,159,1014,0
-131,225,1047,0
9,90,942,0
-3,69,872,0
-19,64,812,0
-46,4,800,0
-22,1,853,0
36,31,935,0
49,13,965,0
38,51,1059,0
83,0,1071,0
12,-96,1133,0
151,289,1257,0
44,171,1096,0
48,290,1122,0
136,306,1148,0
190,171,964,0
70,0,825,0
-27,-46,770,0
-96,-77,778,0
-66,-74,857,0
-1,23,996,0
54,35,1045,0
-23,10,1051,0
-73,32,1066,0
-109,49,1081,0
-80,215,1304,0
45,111,1173,0
-134,27,1033,0
-270,154,1032,0
-244,199,1033,0
-115,222,1010,0
-51,139,936,0
-32,36,828,0
-75,5,776,0
-108,-3,793,0
-94,-20,824,0
-62,23,895,0
-46,39,976,0
64,107,1131,0
181,23,1100,0
86,-52,1271,0
213,203,1365,0
100,300,1226,0
162,290,1150,0
127,224,990,0
58,110,790,0
-66,62,732,0
-127,66,744,0
-125,5,792,0
-88,47,899,0
-49,89,987,0
-63,70,1034,0
-108,62,1107,0
-102,96,1154,0
-187,141,1221,0
-107,230,1226,0
-185,102,1048,0
-279,232,1054,0
-209,249,1053,0
-59,187,956,0
-52,40,833,0
-49,17,795,0
-64,-16,803,0
-71,-60,828,0
-40,-4,910,0
17,39,975,0
27,40,1062,0
92,103,1152,0
75,-5,1209,0
212,209,1328,0
175,151,1152,0
157,195,1109,0
178,225,1058,0
130,109,867,0
-11,9,734,0
-119,6,701,0
-144,-10,694,0
-141,18,795,0
-98,160,980,0
-58,153,1039,0
-116,70,1086,0
-148,102,1197,0
-157,69,1195,0
-189,80,1231,0
-166,135,1213,0
-237,113,1101,0
-252,231,1089,0
-81,263,1034,0
3,76,854,0
-17,-20,757,0
-47,-16,719,0
-95,-60,746,0
-69,23,877,0
-8,87,954,0
-2,32,1010,0
24,162,1153,0
13,46,1125,0
49,155,1255,0
189,262,1286,0
150,84,1131,0
152,78,1039,0
109,111,911,0
62,20,816,0
24,-13,780,0
-4,-9,775,0
-35,-18,864,0
-16,27,994,0
18,46,1054,0
-14,-16,1059,0
-64,-85,1116,0
-58,-28,1166,0
-117,-44,1203,0
-94,93,1214,0
-248,61,1080,0
-339,103,1066,0
-221,194,1060,0
-55,114,939,0
-20,33,819,0
-6,-19,736,0
-57,-78,714,0
-49,-39,821,0
-10,-25,956,0
15,12,1067,0
94,133,1236,0
153,22,1142,0
60,138,1189,0
94,235,1195,0
40,208,1085,0
102,263,1117,0
101,170,980,0
21,34,829,0
-65,-17,738,0
-116,-26,713,0
-154,-43,765,0
-149,47,904,0
-108,85,1029,0
-137,16,1204,0
-140,70,1205,0
-170,130,1256,0
-109,188,1190,0
-222,106,992,0
-308,213,995,0
-183,246,994,0
-60,141,910,0
-40,145,909,0
-42,24,835,0
-83,-44,834,0
-78,-17,908,0
-35,-42,942,0
-33,-9,997,0
-3,81,1109,0
70,39,1084,0
-21,117,1187,0
121,276,1244,0
23,231,1169,0
71,246,1155,0
92,182,1022,0
72,52,886,0
10,-6,783,0
-22,-28,750,0
-70,-31,800,0
-61,-32,882,0
-15,-15,949,0
-28,11,1021,0
-84,12,1077,0
-70,61,1137,0
-145,41,1137,0
-96,125,1213,0
-71,44,1048,0
-223,80,967,0
-330,153,1001,0
-184,222,1053,0
-73,136,978,0
-114,91,932,0
-158,38,868,0
-191,-15,872,0
-179,-43,921,0
-180,-86,932,0
-230,-67,979,0
-173,31,1081,0
-122,-4,1077,0
-140,48,1205,0
-20,240,1180,0
-178,247,1069,0
-107,187,1052,0
-19,169,1005,0
10,38,924,0
-36,-69,857,0
-37,-94,812,0
-58,-44,856,0
-55,-22,916,0
-14,-42,951,0
-27,-56,987,0
-40,-68,1011,0
-78,-42,1046,0
-99,-24,1077,0
-202,2,1197,0
-50,78,1241,0
-93,-70,1049,0
-218,17,1019,0
-211,76,1011,0
-119,68,967,0
-85,57,943,0
-67,20,871,0
-114,-36,825,0
-139,-13,866,0
-124,-21,913,0
-163,-13,968,0
-144,-32,1024,0
-87,-27,1101,0
17,-5,1143,0
-47,6,1203,0
108,136,1228,0
91,155,1111,0
14,190,1065,0
75,188,1034,0
97,140,960,0
74,62,895,0
40,0,826,0
7,-23,810,0
-10,-38,828,0
-17,-2,911,0
-14,43,1000,0
-8,37,1024,0
-47,46,1051,0
-92,32,1077,0
-75,46,1108,0
-146,7,1093,0
-189,113,1188,0
-112,166,1165,0
-171,185,1056,0
-210,274,1033,0
-156,234,991,0
-75,153,955,0
-40,77,898,0
-71,17,836,0
-126,18,830,0
-139,17,863,0
-114,30,923,0
-83,33,973,0
-96,25,1003,0
-81,42,1062,0
-9,74,1100,0
-133,85,1171,0
29,221,1292,0
93,164,1106,0
-44,202,1034,0
-16,187,976,0
46,165,919,0
26,80,865,0
-29,10,790,0
-86,23,812,0
-98,-13,858,0
-63,58,957,0
-22,103,1052,0
1,60,1036,0
-72,31,1029,0
-128,5,1057,0
-115,56,1113,0
-205,101,1194,0
-145,219,1266,0
-148,101,1058,0
-282,175,980,0
-299,259,969,0
-171,263,976,0
-78,173,895,0
-79,36,817,0
-112,7,787,0
-138,-35,839,0
-83,-35,931,0
-11,24,1034,0
28,-15,1023,0
-1,71,1112,0
100,113,1157,0
18,-19,1126,0
143,123,1246,0
154,130,1140,0
52,232,1079,0
127,244,1072,0
173,157,941,0
99,11,780,0
-6,-20,727,0
-66,0,735,0
-98,-45,809,0
-63,53,944,0
-7,85,1044,0
-43,26,1044,0
-139,71,1152,0
-109,59,1180,0
-202,62,1175,0
-189,130,1190,0
-217,89,1056,0
-288,192,1029,0
-270,261,1057,0
-97,253,1004,0
-55,92,862,0
-75,17,784,0
-96,16,762,0
-78,-43,794,0
-27,0,891,0
31,66,990,0
30,57,1066,0
100,104,1158,0
23,4,1149,0
121,190,1213,0
83,162,1139,0
40,273,1143,0
152,244,1107,0
185,112,945,0
99,-5,797,0
0,9,737,0
-58,47,726,0
-92,45,772,0
-92,134,925,0
-42,120,1003,0
-95,69,1029,0
-165,124,1151,0
-95,116,1180,0
-181,89,1190,0
-173,209,1237,0
-199,124,1083,0
-264,289,1059,0
-207,317,1073,0
-12,249,919,0
-13,38,785,0
-60,95,761,0
-71,48,822,0
-23,-46,861,0
67,40,963,0
113,8,974,0
70,84,1055,0
106,126,1127,0
5,56,1196,0
209,368,1370,0
178,197,1169,0
172,265,1121,0
176,156,980,0
120,61,802,0
7,48,719,0
-84,69,711,0
-141,83,747,0
-146,114,864,0
-91,151,991,0
-51,100,1017,0
-140,117,1084,0
-137,138,1152,0
-174,83,1133,0
-196,197,1221,0
-94,151,1145,0
-208,141,1034,0
-249,289,1062,0
-94,242,994,0
-13,122,854,0
-54,49,786,0
-82,60,780,0
-90,22,838,0
-27,67,951,0
48,75,1003,0
42,68,1059,0
96,145,1135,0
73,11,1083,0
118,159,1150,0
193,221,1142,0
169,275,1136,0
199,257,1100,0
198,154,967,0
109,1,791,0
13,14,736,0
-29,38,738,0
-54,6,786,0
-41,161,944,0
33,186,1032,0
4,111,1049,0
-80,244,1182,0
-57,152,1155,0
-106,217,1194,0
-8,266,1218,0
-67,56,1007,0
-184,231,1040,0
-140,284,1064,0
-8,186,956,0
-20,101,889,0
-26,69,832,0
-29,36,804,0
6,9,845,0
73,16,868,0
64,30,891,0
0,89,977,0
47,168,1065,0
-22,35,1039,0
39,316,1291,0
207,236,1256,0
172,229,1189,0
139,213,1130,0
126,59,938,0
54,28,820,0
-51,31,776,0
-107,23,766,0
-110,23,830,0
-47,123,948,0
35,79,994,0
7,17,994,0
-79,48,1072,0
-67,33,1092,0
-192,42,1164,0
-117,218,1226,0
-231,125,1092,0
-322,288,1107,0
-218,331,1147,0
-22,234,1041,0
-2,104,926,0
-14,-23,810,0
-51,-62,755,0
-68,-38,797,0
-44,-9,854,0
12,-1,916,0
62,38,1026,0
195,40,1081,0
100,-36,1087,0
210,116,1236,0
235,169,1219,0
188,226,1193,0
174,191,1079,0
107,87,777,0
-95,35,749,0
-110,1,749,0
-143,28,865,0
-96,100,993,0
-53,43,1029,0
-131,57,1082,0
-140,86,1160,0
-167,119,1188,0
-142,277,1310,0
-107,142,1105,0
-274,224,1017,0
-310,328,1047,0
-95,305,1010,0
21,177,904,0
13,78,816,0
2,68,770,0
-1,20,781,0
29,42,854,0
94,108,935,0
100,131,1030,0
172,208,1131,0
162,85,1141,0
288,319,1287,0
236,211,1191,0
210,290,1195,0
213,178,1064,0
159,75,847,0
10,26,714,0
-111,63,696,0
-172,44,699,0
-173,22,798,0
-101,93,937,0
-62,69,1013,0
-83,109,1153,0
-4,133,1228,0
-101,141,1225,0
0,272,1221,0
-111,215,1045,0
-197,480,1137,0
-8,424,1112,0
138,168,897,0
90,81,809,0
52,35,743,0
3,23,744,0
0,64,900,0
74,196,1105,0
119,212,1214,0
142,329,1347,0
212,153,1322,0
251,294,1131,0
176,654,1160,0
278,623,1007,0
384,651,893,0
283,532,786,0
178,469,735,0
141,386,698,0
108,230,624,0
34,131,593,0
-40,120,632,0
-82,136,744,0
-58,203,887,0
-36,302,1005,0
-26,288,1077,0
-16,291,1114,0
0,280,1106,0
-115,334,1156,0
-17,603,1305,0
93,347,1069,0
-77,386,941,0
-180,538,953,0
-83,405,888,0
-16,322,850,0
-49,255,830,0
-34,143,763,0
-40,68,742,0
-41,143,823,0
32,124,893,0
129,144,964,0
145,176,1032,0
190,205,1124,0
340,135,1082,0
279,45,1009,0
311,282,1155,0
406,356,1134,0
390,351,1038,0
291,268,894,0
226,245,791,0
186,145,678,0
121,78,657,0
65,114,714,0
25,142,825,0
53,230,996,0
135,238,1104,0
158,175,1096,0
109,174,1153,0
137,153,1159,0
78,159,1124,0
54,300,1220,0
94,209,1039,0
-79,241,947,0
-168,392,1033,0
-24,366,1042,0
75,173,905,0
33,104,838,0
-20,52,759,0
-65,42,766,0
-56,61,857,0
4,131,956,0
48,99,999,0
54,175,1092,0
132,185,1106,0
40,72,1050,0
125,350,1272,0
245,315,1183,0
198,344,1119,0
159,232,995,0
96,108,823,0
18,134,764,0
-71,79,745,0
-90,88,773,0
-79,144,849,0
-43,193,932,0
-14,192,988,0
-70,198,1051,0
-169,258,1145,0
-172,444,1379,0
42,272,1205,0
-114,258,1040,0
-192,453,1084,0
-53,334,991,0
21,220,834,0
-15,139,782,0
-46,102,739,0
-65,79,762,0
-42,91,870,0
49,175,980,0
93,132,992,0
79,233,1084,0
114,207,1070,0
84,261,1172,0
198,379,1209,0
194,283,1012,0
50,403,1040,0
146,381,1051,0
216,267,898,0
116,172,793,0
23,109,732,0
-24,94,742,0
-59,20,773,0
-12,110,899,0
70,156,1005,0
95,57,995,0
88,-7,1025,0
28,-20,1014,0
13,53,1069,0
79,45,1075,0
41,-76,994,0
-192,156,1019,0
-260,199,1086,0
-234,294,1041,0
-238,575,1254,0
-76,463,1302,0
126,219,1148,0
138,-49,919,0
73,-94,762,0
57,0,743,0
60,57,767,0
-4,189,881,0
82,299,1135,0
182,112,1081,0
274,390,1279,0
208,457,1325,0
303,420,1273,0
260,232,1011,0
87,147,796,0
-130,167,690,0
-249,171,683,0
-273,156,709,0
-263,245,799,0
-290,264,858,0
-330,268,899,0
-324,341,1039,0
-209,445,1143,0
-188,663,1400,0
36,596,1279,0
-44,533,1160,0
-38,580,1075,0
49,405,902,0
93,285,751,0
83,244,700,0
57,205,692,0
60,137,724,0
88,120,812,0
162,114,922,0
165,127,1046,0
281,172,1114,0
137,19,1047,0
258,480,1214,0
210,473,1182,0
138,356,1021,0
-78,397,978,0
-115,130,783,0
-125,8,697,0
-118,0,728,0
-55,-16,815,0
-2,91,925,0
16,148,1019,0
-5,200,1127,0
-19,272,1236,0
-145,250,1276,0
-25,473,1303,0
-125,235,1112,0
-212,352,1025,0
-231,326,969,0
-132,210,867,0
-49,143,791,0
-33,121,747,0
-22,51,726,0
-38,70,823,0
-34,99,975,0
27,137,1046,0
100,121,1099,0
184,81,1082,0
78,181,1145,0
151,292,1174,0
193,387,1230,0
273,278,1136,0
214,177,942,0
121,78,767,0
10,49,700,0
-48,26,693,0
-76,20,752,0
-80,127,894,0
-30,216,1049,0
-18,140,1122,0
-4,147,1171,0
-71,141,1129,0
-224,253,1195,0
-153,297,1176,0
-197,300,1140,0
-188,360,1131,0
-112,268,1010,0
-34,115,863,0
-5,53,777,0
-11,62,739,0
-35,42,778,0
-20,72,860,0
31,100,965,0
59,79,1036,0
129,140,1146,0
144,77,1142,0
189,211,1226,0
200,257,1145,0
128,302,1073,0
198,307,1064,0
199,181,911,0
117,25,783,0
20,49,752,0
-30,97,774,0
-45,72,834,0
-28,139,943,0
5,151,1027,0
-17,99,1060,0
-88,109,1120,0
-77,129,1136,0
-254,126,1139,0
-99,403,1274,0
-112,134,1013,0
-216,340,1007,0
-207,353,1006,0
-79,237,900,0
-42,175,869,0
-15,120,825,0
-38,26,793,0
-53,64,890,0
-8,49,970,0
37,15,1000,0
15,59,1031,0
11,118,1108,0
117,111,1113,0
-16,50,1072,0
119,310,1221,0
150,269,1132,0
136,319,1126,0
144,267,1006,0
81,81,858,0
-6,49,793,0
-74,-1,810,0
-60,80,908,0
-18,86,969,0
15,71,991,0
-56,67,1028,0
-89,80,1088,0
-103,95,1093,0
-172,230,1211,0
-95,242,1136,0
-255,223,1020,0
-294,387,1058,0
-152,356,988,0
-43,223,890,0
-35,196,863,0
-28,97,839,0
-43,4,840,0
-4,70,902,0
74,51,972,0
95,36,960,0
6,127,1037,0
68,183,1144,0
111,58,1164,0
177,217,1309,0
229,300,1156,0
118,351,995,0
132,327,1005,0
183,242,976,0
136,190,895,0
27,88,810,0
-49,79,782,0
-95,36,800,0
-78,31,858,0
-22,117,926,0
-24,118,975,0
-133,93,1029,0
-165,131,1116,0
-203,142,1139,0
-207,298,1273,0
-83,194,1138,0
-214,131,978,0
-290,278,1002,0
-160,253,999,0
0,190,933,0
-13,103,874,0
-32,49,821,0
-58,14,829,0
-34,-9,893,0
11,-11,948,0
28,-17,1002,0
50,41,1096,0
108,22,1108,0
43,96,1270,0
245,229,1307,0
202,166,1022,0
72,216,1003,0
120,235,969,0
148,158,875,0
48,71,796,0
-56,57,759,0
-107,98,810,0
-86,41,875,0
-11,124,998,0
70,120,1048,0
16,51,1021,0
-77,89,1070,0
-146,99,1077,0
-353,130,1134,0
-233,411,1286,0
-214,189,1067,0
-293,366,1061,0
-239,362,1042,0
-76,258,941,0
-58,108,832,0
-95,80,791,0
-141,58,792,0
-146,3,852,0
-97,89,982,0
-28,58,1010,0
-47,85,1034,0
-54,207,1170,0
56,217,1201,0
92,157,1213,0
202,211,1221,0
159,163,1023,0
79,189,907,0
102,291,910,0
103,185,812,0
32,120,754,0
-48,94,746,0
-90,78,775,0
-106,23,841,0
-81,148,958,0
-36,179,1027,0
-88,74,1023,0
-172,153,1133,0
-228,135,1171,0
-273,371,1441,0
-46,315,1364,0
-131,269,1111,0
-236,318,955,0
-259,317,863,0
-231,261,824,0
-156,229,865,0
-61,139,851,0
-75,71,829,0
-139,53,865,0
-121,43,901,0
-97,16,962,0
-71,-12,1018,0
-65,3,1079,0
45,42,1134,0
6,18,1115,0
118,200,1199,0
147,189,1115,0
71,231,1109,0
155,175,1066,0
144,107,905,0
63,32,798,0
-21,49,754,0
-69,41,751,0
-96,8,805,0
-73,52,902,0
-42,48,978,0
-24,0,1013,0
-136,-10,1073,0
-161,18,1194,0
-211,48,1264,0
-120,219,1368,0
-117,77,1120,0
-277,193,1041,0
-268,229,1015,0
-159,231,957,0
-86,155,920,0
-25,67,846,0
-41,19,779,0
-99,6,799,0
-83,-41,845,0
-37,-4,927,0
-9,15,985,0
-38,67,1074,0
88,127,1153,0
80,-14,1112,0
130,249,1269,0
202,161,1202,0
145,215,1129,0
164,131,1013,0
131,82,871,0
62,19,763,0
-10,8,731,0
-55,21,749,0
-74,0,833,0
-35,98,997,0
6,47,1041,0
-81,54,1102,0
-104,79,1207,0
-200,79,1217,0
-170,329,1393,0
-55,148,1156,0
-215,193,996,0
-285,287,974,0
-175,236,901,0
-77,165,826,0
-67,70,794,0
-53,42,776,0
-44,-31,796,0
-17,-21,876,0
29,29,980,0
43,21,1009,0
46,143,1161,0
136,61,1154,0
82,215,1250,0
210,334,1249,0
166,264,1096,0
154,291,1047,0
160,163,901,0
97,69,753,0
-33,46,718,0
-118,46,722,0
-178,31,794,0
-156,116,932,0
-53,163,1030,0
-50,76,991,0
-160,184,1099,0
-172,210,1178,0
-226,309,1303,0
-126,391,1339,0
-201,260,1082,0
-332,370,1000,0
-287,429,978,0
-117,302,847,0
-90,182,772,0
-88,137,712,0
-117,108,731,0
-126,46,782,0
-88,123,899,0
-49,178,991,0
-47,251,1128,0
91,304,1214,0
48,186,1140,0
145,362,1304,0
119,414,1166,0
124,395,1110,0
139,265,987,0
103,115,782,0
-22,64,695,0
-112,104,720,0
-145,44,762,0
-150,59,860,0
-114,127,970,0
-97,101,1013,0
-169,72,1074,0
-186,100,1138,0
-280,129,1193,0
-133,337,1333,0
-155,128,1065,0
-308,292,1045,0
-290,333,1031,0
-117,287,947,0
-60,165,846,0
-30,86,767,0
-60,34,741,0
-93,-8,784,0
-56,19,877,0
17,67,960,0
16,81,1038,0
59,195,1191,0
174,187,1196,0
108,214,1265,0
230,272,1240,0
74,183,1066,0
49,171,976,0
64,225,954,0
55,104,849,0
-24,49,768,0
-77,35,749,0
-100,-1,756,0
-77,46,853,0
7,67,981,0
17,22,1030,0
-75,58,1120,0
-141,122,1183,0
-269,234,1292,0
-157,326,1270,0
-247,201,1037,0
-355,347,1002,0
-294,324,963,0
-158,259,886,0
-127,103,811,0
-123,89,777,0
-103,0,777,0
-72,-34,826,0
-93,26,917,0
-111,59,1007,0
-79,223,1188,0
62,242,1261,0
21,224,1268,0
123,360,1245,0
41,334,1108,0
62,311,1051,0
136,204,936,0
140,94,741,0
44,39,640,0
-62,66,688,0
-131,67,752,0
-121,94,863,0
-78,171,1014,0
-85,159,1098,0
-125,196,1190,0
-53,268,1270,0
-106,257,1284,0
-4,346,1257,0
-89,185,1027,0
-183,258,992,0
-138,312,1015,0
-7,226,896,0
0,153,824,0
-19,99,795,0
-46,54,797,0
-36,16,851,0
12,26,934,0
56,20,956,0
38,68,1029,0
91,119,1134,0
151,-14,1045,0
48,157,1119,0
157,374,1280,0
268,213,1089,0
221,153,975,0
138,-69,781,0
26,-52,776,0
-35,-35,783,0
-37,-62,853,0
5,53,984,0
60,50,1037,0
31,-12,1062,0
9,83,1152,0
-57,-22,1109,0
-43,77,1207,0
-31,-19,1112,0
-163,76,1078,0
-182,103,1087,0
-13,114,1007,0
53,20,881,0
53,28,830,0
47,-61,762,0
54,-17,841,0
128,22,936,0
195,13,962,0
140,17,1017,0
170,67,1135,0
243,-83,1066,0
126,45,1158,0
251,162,1252,0
329,153,1162,0
399,144,1075,0
353,113,966,0
246,-36,754,0
108,-32,718,0
50,-27,731,0
27,-59,804,0
16,43,961,0
40,63,1070,0
7,-6,1119,0
-19,26,1213,0
-60,-20,1177,0
-95,117,1240,0
-27,81,1114,0
-163,137,1006,0
-191,219,1046,0
37,258,1059,0
155,100,892,0
87,34,840,0
63,-13,788,0
53,-58,811,0
87,-43,892,0
130,-33,942,0
107,23,1030,0
184,129,1156,0
123,-8,1052,0
182,127,1239,0
194,211,1181,0
136,280,1107,0
165,204,1073,0
133,106,934,0
53,-7,808,0
-26,-5,774,0
-48,9,787,0
-28,-1,859,0
5,94,973,0
23,47,1009,0
-54,21,1065,0
-58,38,1110,0
-168,29,1124,0
-78,279,1275,0
-91,29,1044,0
-263,296,1071,0
-222,331,1115,0
5,171,980,0
34,98,928,0
48,39,882,0
52,-57,813,0
17,-31,861,0
55,14,925,0
111,34,965,0
92,50,1026,0
159,104,1101,0
83,-2,1061,0
138,206,1193,0
193,139,1141,0
106,250,1143,0
115,223,1122,0
112,138,967,0
21,-40,792,0
-73,-62,746,0
-105,-62,768,0
-97,-94,839,0
-36,25,969,0
14,94,1054,0
-41,36,1075,0
-54,112,1158,0
-102,58,1167,0
-70,132,1278,0
60,-43,1106,0
-127,-9,999,0
-233,167,1014,0
-133,185,1005,0
-31,92,909,0
-38,52,857,0
-54,47,818,0
-63,16,845,0
-35,0,899,0
27,21,963,0
41,-32,985,0
68,42,1080,0
168,82,1118,0
47,65,1171,0
199,275,1215,0
107,155,1106,0
102,303,1089,0
83,291,1040,0
42,134,898,0
-55,32,797,0
-101,-31,752,0
-119,-7,789,0
-149,172,939,0
-95,186,1008,0
-94,199,1018,0
-133,191,1087,0
-101,224,1144,0
-204,187,1139,0
-130,285,1210,0
-116,105,1043,0
-269,153,964,0
-265,278,1021,0
-79,249,979,0
-17,32,878,0
-65,50,836,0
-106,10,807,0
-115,13,853,0
-59,47,939,0
-23,17,964,0
-56,46,1029,0
20,125,1113,0
0,-40,1040,0
-40,82,1125,0
0,118,1161,0
34,297,1235,0
101,173,1158,0
64,95,973,0
-25,-26,807,0
-100,-36,743,0
-134,-29,738,0
-146,31,831,0
-91,106,965,0
-15,95,1030,0
-71,42,1080,0
-88,107,1200,0
-49,73,1198,0
-86,145,1284,0
-20,57,1115,0
-196,28,967,0
-289,191,986,0
-182,274,1056,0
-26,153,974,0
-23,62,892,0
-62,25,820,0
-122,-10,781,0
-119,-2,852,0
-53,19,891,0
-37,72,966,0
-2,186,1104,0
124,39,1065,0
13,56,1112,0
104,215,1217,0
105,200,1238,0
154,234,1203,0
112,185,1073,0
40,111,898,0
-35,47,808,0
-73,8,784,0
-95,-51,817,0
-100,-35,903,0
-71,-32,981,0
-38,-53,1025,0
-82,-49,1076,0
-54,0,1111,0
-190,1,1138,0
-81,188,1270,0
-73,-20,1114,0
-172,178,1104,0
-166,150,1065,0
-42,43,937,0
-45,-3,848,0
-94,-8,792,0
-118,-21,813,0
-67,-8,891,0
-14,-9,941,0
-14,-24,967,0
-47,50,1079,0
66,34,1095,0
-54,-83,1051,0
-14,89,1156,0
17,77,1138,0
34,269,1222,0
43,176,1130,0
11,122,964,0
-88,-23,779,0
-148,-2,759,0
-163,9,792,0
-141,45,897,0
-88,61,960,0
-48,60,967,0
-153,21,1029,0
-164,48,1111,0
-252,82,1189,0
-88,297,1414,0
-3,72,1119,0
-212,160,1012,0
-283,222,1015,0
-124,175,907,0
-100,70,837,0
-119,94,848,0
-116,36,824,0
-106,14,851,0
-63,65,921,0
-21,33,930,0
-35,83,1010,0
22,116,1085,0
-30,18,1060,0
10,180,1235,0
176,226,1228,0
73,219,1142,0
60,221,1154,0
87,86,1008,0
51,50,904,0
-28,-29,784,0
-65,-52,721,0
-61,-47,807,0
-21,18,938,0
-4,89,1023,0
-39,55,968,0
-157,17,1020,0
-159,67,1135,0
-174,41,1123,0
-232,145,1279,0
-138,111,1139,0
-298,99,1032,0
-336,168,1068,0
-155,233,1050,0
-98,99,940,0
-150,34,839,0
-167,32,801,0
-153,17,844,0
-87,20,887,0
-29,29,922,0
-40,37,993,0
-14,70,1091,0
47,8,1061,0
-37,46,1128,0
-11,100,1118,0
-84,174,1158,0
27,242,1227,0
117,201,1128,0
68,26,927,0
-31,-44,811,0
-87,-85,769,0
-125,-78,818,0
-129,12,918,0
-81,35,972,0
-72,13,993,0
-104,-10,1036,0
-74,6,1069,0
-192,3,1110,0
-60,121,1229,0
-34,-96,992,0
-280,40,977,0
-332,166,1065,0
-81,225,1108,0
-27,93,998,0
-65,12,931,0
-69,-68,829,0
-75,-61,861,0
-40,-11,907,0
-15,1,934,0
-11,43,1021,0
91,25,1056,0
-21,-12,1098,0
81,148,1243,0
150,130,1177,0
80,158,1163,0
102,112,1056,0
75,25,905,0
11,-37,791,0
-31,-59,833,0
-16,-38,910,0
13,20,980,0
-8,-9,987,0
-107,-37,1042,0
-95,-20,1101,0
-94,-13,1109,0
-173,42,1190,0
-70,66,1156,0
-196,27,1042,0
-265,117,1058,0
-108,190,1067,0
14,81,969,0
-25,4,884,0
-62,-32,828,0
-81,-32,850,0
-24,0,909,0
23,9,907,0
-32,57,923,0
-46,123,1030,0
4,90,991,0
-68,199,1160,0
91,305,1258,0
106,183,1230,0
106,271,1235,0
86,57,1027,0
13,-25,873,0
-83,-34,831,0
-126,-50,798,0
-124,-22,851,0
-90,69,942,0
-62,46,974,0
-127,29,1010,0
-141,13,1084,0
-56,-31,1100,0
-170,-60,1103,0
-144,36,1139,0
-199,70,1115,0
-226,192,1123,0
-100,271,1135,0
14,118,1007,0
4,46,881,0
-45,16,797,0
-72,13,804,0
-39,-12,852,0
9,13,909,0
-38,35,960,0
-13,63,1041,0
42,-46,1038,0
-40,64,1170,0
94,230,1284,0
27,157,1177,0
16,259,1186,0
35,125,1091,0
44,20,927,0
-26,-55,843,0
-48,-60,796,0
-79,-73,793,0
-75,-47,864,0
-42,0,921,0
-43,10,958,0
-121,-17,1013,0
-112,15,1089,0
-219,43,1202,0
-35,236,1346,0
-73,-62,1099,0
-231,200,1107,0
-207,239,1128,0
-6,117,995,0
-8,4,866,0
-62,-28,802,0
-103,-14,802,0
-86,-50,839,0
-29,3,911,0
1,42,969,0
-24,57,1040,0
80,60,1073,0
-32,-102,1010,0
-22,113,1155,0
76,127,1237,0
144,87,1154,0
131,155,1116,0
69,125,977,0
1,-29,816,0
-48,-31,801,0
-66,-29,827,0
-34,-22,925,0
27,23,999,0
42,-9,1006,0
1,15,1076,0
32,-7,1112,0
-39,-43,1129,0
2,21,1201,0
-63,-27,1119,0
-213,101,1088,0
-192,176,1155,0
28,171,1080,0
15,-5,875,0
-50,11,802,0
-56,17,763,0
-48,-92,750,0
-14,10,864,0
43,31,941,0
110,18,1024,0
192,-2,1060,0
-35,-97,1098,0
171,215,1351,0
190,-7,1253,0
99,157,1199,0
82,133,1174,0
118,44,1020,0
54,-102,863,0
-7,-79,806,0
-20,-84,780,0
-14,-129,808,0
9,-28,877,0
11,-5,925,0
-27,-44,972,0
-27,1,1060,0
-151,-26,1177,0
9,157,1391,0
66,-121,1119,0
-180,62,1068,0
-253,166,1068,0
-59,165,1049,0
52,40,926,0
-5,-46,847,0
-44,-36,798,0
-59,-58,800,0
-26,-20,873,0
19,31,944,0
12,49,1013,0
96,68,1101,0
35,-55,1098,0
104,174,1266,0
172,82,1247,0
134,190,1259,0
177,95,1149,0
110,12,970,0
48,-60,826,0
-15,-76,782,0
-43,-65,784,0
-61,-62,836,0
-20,11,924,0
7,-6,948,0
-48,-36,986,0
-72,-11,1054,0
-92,-1,1094,0
-144,65,1286,0
49,6,1191,0
-152,-9,1078,0
-286,121,1046,0
-175,179,1072,0
8,137,1000,0
12,36,896,0
-30,5,822,0
-60,-22,795,0
-45,-42,844,0
12,19,929,0
16,26,988,0
20,48,1045,0
57,38,1033,0
-102,67,1158,0
103,193,1263,0
61,97,1191,0
-11,256,1186,0
-1,127,1054,0
-24,61,922,0
-90,-9,818,0
-142,-22,779,0
-161,-30,795,0
-136,23,886,0
-58,94,965,0
-56,43,962,0
-155,61,1015,0
-198,96,1081,0
-195,256,1284,0
-68,193,1222,0
-201,156,1080,0
-330,231,1008,0
-236,356,1015,0
-63,346,957,0
16,274,920,0
33,194,893,0
83,83,958,0
160,24,1000,0
225,79,935,0
251,57,848,0
241,100,878,0
230,34,869,0
202,154,1113,0
345,308,1241,0
307,252,1239,0
197,209,1115,0
72,84,941,0
19,37,810,0
-47,25,796,0
-59,-11,831,0
-1,37,900,0
53,97,990,0
72,27,975,0
30,10,1006,0
40,-25,1039,0
40,-66,1068,0
-48,55,1226,0
66,77,1185,0
-85,-37,1014,0
-187,171,1034,0
-131,211,1047,0
28,123,963,0
50,62,909,0
49,53,868,0
29,0,808,0
57,-21,817,0
83,77,880,0
77,136,938,0
94,190,1049,0
201,131,1066,0
74,108,1082,0
185,276,1179,0
219,168,1125,0
240,348,1233,0
318,292,1177,0
271,161,975,0
121,72,825,0
14,89,777,0
-30,35,763,0
-40,30,820,0
-6,115,906,0
-17,74,926,0
-40,112,1027,0
-12,110,1093,0
-99,104,1137,0
43,336,1338,0
63,2,1120,0
-94,270,1133,0
-142,336,1120,0
41,255,1013,0
90,134,892,0
70,72,814,0
50,38,768,0
66,15,801,0
133,42,869,0
173,69,921,0
169,138,1027,0
266,123,1082,0
210,22,1082,0
294,185,1194,0
238,137,1138,0
250,279,1217,0
299,209,1192,0
225,57,977,0
59,-9,848,0
-56,11,781,0
-84,-15,759,0
-96,-15,806,0
-90,39,874,0
-152,4,927,0
-180,9,1004,0
-216,10,1066,0
-314,41,1179,0
-119,203,1289,0
-183,57,1123,0
-291,304,1132,0
-150,308,1087,0
0,163,942,0
38,92,889,0
54,63,857,0
60,-67,799,0
53,-54,821,0
47,12,872,0
40,120,962,0
141,165,1086,0
147,53,1110,0
248,188,1222,0
162,246,1200,0
58,281,1227,0
109,184,1159,0
113,88,989,0
-61,-27,799,0
-227,28,777,0
-280,11,771,0
-257,-16,820,0
-238,-20,893,0
-208,-24,920,0
-215,-72,956,0
-221,252,1301,0
-192,-52,1106,0
-426,214,1141,0
-373,317,1160,0
-119,229,1050,0
7,121,927,0
18,143,912,0
39,80,868,0
74,-46,837,0
118,-48,862,0
135,-2,871,0
99,33,934,0
169,58,987,0
32,-32,1060,0
214,294,1296,0
186,143,1290,0
238,206,1255,0
36,209,1213,0
-48,58,1037,0
-138,-75,891,0
-123,-87,835,0
-82,-109,791,0
-82,-123,779,0
-139,-114,789,0
-217,-122,818,0
-229,-78,910,0
-186,27,1039,0
-282,-76,1133,0
-451,-30,1173,0
-547,116,1249,0
-394,325,1359,0
1,299,1285,0
218,214,1063,0
175,-4,810,0
90,-15,732,0
50,-22,730,0
65,-147,757,0
113,-118,821,0
114,-69,957,0
176,-86,1071,0
85,-207,1157,0
145,68,1429,0
137,104,1288,0
33,226,1202,0
-19,165,1068,0
-37,100,922,0
-85,0,814,0
-180,-35,796,0
-226,-74,805,0
-225,-140,896,0
-235,-32,926,0
-239,-40,944,0
-249,-46,963,0
-222,28,1023,0
-75,0,982,0
-294,-167,886,0
-614,3,968,0
-613,159,1134,0
-420,329,1246,0
-90,313,1141,0
167,614,1145,0
239,350,978,0
194,23,793,0
135,28,734,0
98,52,712,0
76,62,765,0
72,181,884,0
160,219,1017,0
143,-51,1004,0
133,218,1224,0
183,515,1319,0
224,317,1290,0
255,181,1120,0
45,155,962,0
-114,132,870,0
-191,152,838,0
-194,105,839,0
-169,73,865,0
-167,68,910,0
-159,33,925,0
-216,-23,940,0
-186,34,985,0
-212,81,1089,0
-60,290,1246,0
-106,-5,1105,0
-274,263,1150,0
-156,408,1193,0
54,224,1095,0
127,61,949,0
107,-10,852,0
82,-25,780,0
68,-7,763,0
110,15,816,0
122,95,879,0
174,97,979,0
233,8,1014,0
12,23,1067,0
196,284,1230,0
159,256,1272,0
247,261,1274,0
132,219,1152,0
-79,166,1052,0
-185,52,926,0
-211,-23,833,0
-198,-78,757,0
-187,-68,734,0
-245,-90,711,0
-381,-31,763,0
-420,72,923,0
-460,104,1059,0
-237,263,1349,0
-207,187,1347,0
-295,367,1396,0
-135,447,1333,0
80,164,1060,0
112,55,860,0
122,45,753,0
105,9,701,0
120,-34,687,0
157,-74,695,0
205,47,816,0
265,64,943,0
259,-121,1073,0
328,31,1259,0
199,187,1288,0
141,253,1322,0
206,185,1217,0
192,94,1050,0
59,30,877,0
-61,83,801,0
-103,97,764,0
-126,99,764,0
-156,53,816,0
-120,13,872,0
-127,-122,917,0
-157,-174,1018,0
-363,-259,1130,0
-311,81,1254,0
-436,89,1347,0
-356,411,1408,0
-98,447,1278,0
63,369,1041,0
132,224,840,0
186,137,752,0
204,66,708,0
235,-2,711,0
268,-98,696,0
269,-99,742,0
330,-32,848,0
304,-47,1060,0
433,-52,1312,0
395,60,1420,0
382,282,1468,0
241,172,1227,0
102,99,952,0
-10,91,823,0
-112,73,771,0
-145,-31,757,0
-259,-10,779,0
-336,74,809,0
-358,101,855,0
-265,140,960,0
-253,51,1087,0
-67,66,1208,0
-244,-103,1086,0
-452,151,1205,0
-326,328,1373,0
-31,66,1222,0
1,-23,994,0
-27,-26,820,0
-27,-63,674,0
5,-112,599,0
63,-114,662,0
67,-133,778,0
84,-21,962,0
145,-126,1081,0
-71,-283,1067,0
112,451,1428,0
84,400,1509,0
65,285,1304,0
-120,251,1098,0
-232,156,930,0
-273,84,818,0
-268,17,784,0
-242,-24,773,0
-278,19,785,0
-305,11,803,0
-306,29,877,0
-185,107,987,0
-195,112,1078,0
-184,162,1231,0
-224,96,1225,0
-274,299,1268,0
-141,327,1224,0
-3,259,1088,0
61,138,946,0
44,12,811,0
35,9,775,0
48,-5,771,0
51,-49,775,0
12,15,878,0
79,110,1026,0
170,-29,1024,0
-40,-45,1112,0
119,328,1342,0
161,187,1326,0
238,218,1287,0
141,153,1117,0
26,-4,907,0
-91,-3,842,0
-121,-50,797,0
-122,-111,763,0
-173,-36,787,0
-228,29,823,0
-271,-1,873,0
-262,22,964,0
-379,165,1255,0
-3,272,1339,0
-103,-32,1214,0
-318,328,1272,0
-193,376,1265,0
46,92,1035,0
47,8,859,0
12,25,753,0
5,31,683,0
20,-6,652,0
53,-5,728,0
81,126,852,0
155,183,1004,0
71,81,1107,0
212,327,1332,0
164,346,1400,0
190,308,1401,0
122,115,1225,0
26,49,1038,0
-82,23,915,0
-116,-22,799,0
-149,-45,734,0
-198,-16,720,0
-261,2,723,0
-281,8,764,0
-264,18,846,0
-294,157,1029,0
-87,413,1269,0
-34,166,1260,0
-160,480,1321,0
-72,480,1358,0
137,260,1170,0
177,175,1008,0
186,164,874,0
169,97,734,0
132,74,686,0
118,114,732,0
137,127,822,0
237,150,926,0
169,8,997,0
271,273,1295,0
250,436,1373,0
140,388,1310,0
-60,373,1112,0
-190,272,950,0
-227,146,791,0
-197,82,744,0
-97,14,742,0
-96,-7,681,0
-250,68,720,0
-412,137,805,0
-426,240,951,0
-533,326,1153,0
-284,646,1372,0
-199,408,1249,0
-220,676,1281,0
0,628,1193,0
228,351,970,0
252,152,806,0
203,77,693,0
150,14,620,0
131,34,635,0
130,182,749,0
211,289,865,0
255,480,926,0
172,399,970,0
151,580,1048,0
50,646,1095,0
10,843,1221,0
38,637,1112,0
-57,417,865,0
-165,343,809,0
-185,293,836,0
-151,188,843,0
-162,110,812,0
-255,109,795,0
-340,140,819,0
-364,189,856,0
-406,539,1075,0
-123,814,1170,0
-56,592,1118,0
-120,688,1064,0
-92,737,1040,0
83,509,885,0
172,245,801,0
170,135,743,0
135,155,725,0
137,181,766,0
209,251,813,0
205,199,838,0
188,292,973,0
113,273,1051,0
87,234,1157,0
177,348,1250,0
286,365,1335,0
313,169,1122,0
184,92,931,0
31,88,851,0
-51,119,830,0
-75,29,772,0
-145,-15,750,0
-245,59,772,0
-324,149,832,0
-368,190,935,0
-370,304,1054,0
-201,533,1337,0
-105,279,1203,0
-260,322,1216,0
-216,661,1253,0
38,487,1122,0
206,160,875,0
214,112,747,0
181,111,697,0
177,87,696,0
200,27,737,0
275,9,808,0
342,36,920,0
432,-25,1005,0
345,-68,1138,0
330,228,1302,0
191,367,1329,0
97,341,1285,0
15,313,1146,0
-55,203,1021,0
-111,62,901,0
-131,-20,822,0
-176,-46,760,0
-243,-35,693,0
-274,68,722,0
-302,71,792,0
-253,91,896,0
-346,117,1091,0
-174,315,1314,0
-217,168,1374,0
-161,399,1400,0
83,381,1308,0
251,87,1026,0
236,-41,823,0
191,-36,736,0
172,-42,683,0
145,-66,662,0
171,-41,758,0
233,109,960,0
369,-36,1064,0
270,-261,1070,0
268,128,1301,0
243,219,1337,0
323,150,1264,0
168,113,1091,0
14,174,989,0
-71,81,885,0
-150,-16,824,0
-176,-56,800,0
-203,-52,784,0
-215,-2,797,0
-272,-14,890,0
-251,50,1005,0
-197,87,1060,0
-236,348,1381,0
-7,426,1450,0
-46,253,1305,0
-98,492,1278,0
58,418,1128,0
198,259,885,0
243,217,740,0
257,209,642,0
292,121,571,0
351,5,598,0
484,-59,675,0
617,1,924,0
499,-19,1191,0
438,141,1340,0
355,402,1408,0
217,569,1390,0
162,550,1313,0
-50,346,1067,0
-290,235,878,0
-419,88,739,0
-391,-67,622,0
-376,-111,617,0
-325,-86,696,0
-146,-395,781,0
-99,-53,836,0
-313,370,1038,0
-583,485,1188,0
-252,655,1319,0
-202,399,1107,0
-274,391,1257,0
-73,419,1330,0
41,241,1082,0
-16,82,811,0
-35,-5,663,0
-47,96,655,0
-45,119,740,0
-21,130,811,0
13,117,881,0
145,160,1009,0
118,168,1037,0
131,188,1121,0
134,236,1197,0
173,282,1216,0
129,252,1244,0
38,106,1140,0
-75,-12,1057,0
-153,-62,971,0
-198,-141,862,0
-188,-92,795,0
-155,-10,770,0
-152,-35,758,0
-143,36,866,0
-71,67,960,0
-192,30,1138,0
-101,32,1185,0
-338,179,1282,0
-285,355,1413,0
59,298,1390,0
260,112,1103,0
200,-52,803,0
91,-40,665,0
27,16,620,0
43,3,656,0
124,134,787,0
249,225,994,0
412,9,982,0
327,-79,939,0
311,175,1187,0
331,327,1466,0
385,113,1322,0
85,133,1210,0
-208,59,1085,0
-415,-39,907,0
-368,-96,775,0
-217,-94,708,0
-149,99,723,0
-177,175,759,0
-207,271,889,0
-213,296,1021,0
-199,480,1388,0
114,464,1333,0
-139,251,1179,0
-149,554,1289,0
136,406,1143,0
246,173,922,0
190,82,786,0
98,12,695,0
72,18,663,0
75,17,639,0
91,31,695,0
128,255,883,0
281,357,1095,0
342,64,1064,0
205,310,1265,0
222,461,1386,0
322,314,1306,0
196,170,1140,0
-2,246,1019,0
-111,226,904,0
-185,68,816,0
-241,49,794,0
-302,83,806,0
-350,52,793,0
-374,19,805,0
-396,-38,837,0
-591,-30,1011,0
-223,414,1201,0
-326,92,1177,0
-311,477,1338,0
-36,606,1353,0
259,302,1103,0
262,132,899,0
196,122,788,0
164,99,718,0
177,83,693,0
214,10,763,0
301,56,903,0
438,92,957,0
338,-76,1017,0
389,378,1260,0
324,494,1384,0
232,256,1313,0
87,138,1104,0
-73,141,979,0
-119,58,844,0
-158,-44,759,0
-207,-63,732,0
-337,5,747,0
-424,76,796,0
-446,116,903,0
-297,345,1085,0
-200,350,1308,0
131,359,1290,0
38,316,1228,0
-2,496,1191,0
146,513,1169,0
265,280,980,0
276,143,850,0
264,85,771,0
253,81,685,0
277,-9,660,0
317,-67,697,0
391,38,871,0
546,98,1088,0
555,31,1115,0
403,373,1223,0
204,606,1238,0
141,528,1118,0
39,462,999,0
-82,410,879,0
-183,278,780,0
-263,231,768,0
-351,54,813,0
-316,-8,844,0
-262,331,871,0
-264,420,890,0
-317,439,880,0
-222,366,884,0
-401,676,1068,0
-134,614,1269,0
-91,75,1016,0
-295,431,1073,0
-132,497,1185,0
41,230,997,0
96,62,863,0
84,52,839,0
91,55,744,0
101,63,703,0
98,56,719,0
78,108,804,0
176,254,1005,0
146,23,1138,0
281,20,1236,0
185,225,1403,0
193,134,1311,0
98,63,1097,0
-15,77,975,0
-62,-51,855,0
-20,-86,791,0
-17,-64,803,0
-30,-30,820,0
-71,32,818,0
-124,43,858,0
-184,5,933,0
-146,114,1059,0
-315,26,1213,0
-341,57,1276,0
-514,191,1310,0
-456,393,1341,0
-128,265,1164,0
82,169,940,0
173,280,858,0
199,207,729,0
210,87,652,0
201,74,678,0
201,87,730,0
239,187,869,0
301,89,994,0
344,-25,1277,0
277,126,1387,0
329,228,1399,0
295,127,1206,0
172,123,1051,0
17,106,926,0
-124,53,838,0
-211,34,798,0
-266,-2,716,0
-354,25,670,0
-389,118,704,0
-372,105,790,0
-255,200,1019,0
-158,237,1253,0
31,-62,1248,0
-134,57,1230,0
-266,338,1296,0
-73,299,1230,0
114,185,1062,0
201,78,911,0
241,14,787,0
252,0,699,0
275,-6,673,0
287,-73,663,0
297,-3,748,0
313,67,870,0
290,-13,1033,0
471,221,1276,0
602,495,1414,0
547,512,1271,0
338,352,985,0
147,332,834,0
-41,400,804,0
-145,300,784,0
-185,177,788,0
-198,191,818,0
-236,203,847,0
-276,220,908,0
-288,235,1031,0
-273,233,1156,0
-241,393,1281,0
-260,502,1383,0
-175,632,1328,0
30,723,1225,0
196,495,983,0
240,197,705,0
216,148,640,0
204,179,593,0
202,136,578,0
179,74,615,0
161,101,758,0
270,264,1053,0
322,68,1138,0
429,-3,1356,0
503,278,1458,0
535,391,1411,0
343,55,1074,0
167,-133,825,0
36,-47,778,0
-66,-25,755,0
-111,-101,707,0
-164,-19,694,0
-200,136,801,0
-226,171,943,0
-147,210,1105,0
-131,124,1241,0
105,53,1263,0
-11,-6,1261,0
-38,240,1304,0
113,292,1311,0
276,167,1111,0
287,62,888,0
244,2,724,0
255,15,681,0
298,-25,672,0
337,-95,670,0
344,-50,782,0
371,34,930,0
274,-97,1085,0
281,198,1329,0
306,457,1524,0
304,243,1337,0
154,108,1028,0
-62,65,831,0
-159,93,717,0
-183,-31,647,0
-206,7,662,0
-281,78,751,0
-359,137,888,0
-304,180,1035,0
-131,246,1166,0
-72,222,1283,0
58,233,1273,0
-104,299,1210,0
-130,447,1204,0
59,375,1130,0
176,213,939,0
194,116,827,0
201,72,731,0
200,24,677,0
220,27,673,0
235,82,727,0
330,269,869,0
349,335,1099,0
489,420,1307,0
433,483,1402,0
356,539,1384,0
144,258,1125,0
-2,127,911,0
-97,154,801,0
-117,85,722,0
-134,1,649,0
-178,78,636,0
-281,117,661,0
-297,196,836,0
-118,344,1052,0
-114,195,1057,0
-133,223,1237,0
-174,522,1458,0
-84,697,1560,0
157,600,1503,0
297,303,1152,0
258,119,844,0
214,76,656,0
184,72,524,0
146,45,494,0
130,98,549,0
101,130,636,0
170,240,857,0
339,491,1316,0
555,290,1425,0
427,475,1438,0
317,556,1336,0
101,301,1041,0
-43,227,853,0
-79,246,776,0
-49,168,751,0
-40,117,715,0
-71,122,710,0
-152,83,709,0
-336,83,796,0
-341,244,993,0
-279,327,1177,0
-68,492,1275,0
6,404,1260,0
-18,555,1217,0
100,538,1183,0
215,316,1041,0
221,118,909,0
208,67,798,0
195,97,705,0
217,77,690,0
297,65,744,0
380,112,884,0
454,53,892,0
356,39,984,0
476,387,1251,0
298,334,1252,0
206,337,1210,0
84,253,1123,0
67,94,967,0
-25,-42,841,0
-77,19,827,0
-104,50,835,0
-88,67,862,0
-80,76,905,0
-95,20,918,0
-68,45,966,0
-217,-18,1036,0
58,227,1225,0
-71,276,1407,0
-208,513,1538,0
-73,520,1552,0
118,193,1305,0
144,-1,1060,0
111,-8,930,0
109,-37,851,0
30,-190,930,0
-53,-92,870,0
-151,-56,805,0
-285,3,871,0
-293,150,928,0
-347,107,981,0
-262,114,1033,0
-236,6,916,0
-229,-146,828,0
-266,-268,633,0
-330,-167,805,0
-387,142,1030,0
-370,44,700,0
-324,-95,483,0
-276,25,616,0
-262,112,924,0
-307,314,787,0
-602,686,568,0
-678,421,629,0
-609,83,976,0
-829,-50,1190,0
-936,159,1321,0
-521,444,1307,0
-244,383,1125,0
-12,254,895,0
69,97,707,0
133,-32,601,0
110,-108,570,0
64,0,665,0
94,175,840,0
93,50,1027,0
14,7,1248,0
-112,340,1524,0
70,508,1624,0
69,44,1324,0
42,-194,1023,0
-15,-141,906,0
-32,-76,825,0
-63,-80,710,0
-108,-113,644,0
-177,-106,685,0
-268,-9,808,0
-305,202,996,0
-212,228,1174,0
-201,143,1179,0
-213,87,1233,0
-363,205,1348,0
-320,667,1462,0
-11,839,1486,0
248,260,1142,0
321,-147,899,0
283,32,814,0
260,-36,712,0
271,-152,642,0
297,-188,632,0
271,-160,691,0
346,-142,756,0
291,-251,803,0
274,-99,914,0
182,278,1106,0
256,303,1276,0
299,338,1264,0
204,405,1198,0
28,229,1073,0
-140,180,991,0
-232,218,998,0
-270,147,983,0
-261,122,979,0
-293,63,948,0
-319,96,947,0
-472,135,984,0
-228,792,1463,0
-27,434,1381,0
36,680,1459,0
223,713,1380,0
384,396,1031,0
383,244,787,0
372,239,664,0
339,182,569,0
272,243,573,0
241,315,650,0
380,369,727,0
450,56,758,0
509,181,944,0
347,674,1230,0
182,317,1181,0
0,221,1110,0
-108,342,1089,0
-135,197,969,0
-124,118,864,0
-153,158,758,0
-225,221,715,0
-309,271,761,0
-303,343,862,0
-311,593,1123,0
-146,819,1315,0
-71,483,1220,0
-172,768,1286,0
-50,846,1223,0
94,470,964,0
125,331,810,0
121,396,767,0
119,356,705,0
130,224,651,0
166,238,696,0
200,275,752,0
281,231,813,0
383,115,853,0
288,101,898,0
201,648,1254,0
265,423,1272,0
244,247,1164,0
80,177,1033,0
-57,42,903,0
-106,-8,847,0
-133,-25,780,0
-170,41,754,0
-189,163,793,0
-204,163,856,0
-206,158,942,0
-211,250,1115,0
0,507,1381,0
20,271,1307,0
-28,456,1306,0
51,591,1314,0
227,378,1153,0
278,158,959,0
254,88,798,0
204,90,670,0
169,104,619,0
155,145,647,0
214,228,759,0
332,285,865,0
332,21,823,0
185,151,1037,0
197,432,1264,0
296,413,1347,0
284,77,1215,0
188,157,1086,0
66,137,944,0
-32,97,853,0
-65,55,814,0
-114,19,779,0
-211,44,805,0
-301,80,869,0
-288,115,972,0
-278,148,1076,0
-111,406,1329,0
-91,79,1170,0
-225,291,1188,0
-225,510,1218,0
-40,403,1107,0
91,194,948,0
124,134,866,0
145,117,795,0
132,16,699,0
133,35,682,0
134,83,744,0
184,220,899,0
306,239,993,0
174,177,1091,0
240,379,1206,0
124,547,1269,0
138,437,1266,0
135,257,1109,0
80,113,939,0
-31,107,830,0
-88,131,771,0
-80,90,724,0
-107,131,699,0
-220,214,737,0
-356,307,827,0
-337,541,964,0
-408,501,1037,0
-322,855,1263,0
-239,821,1208,0
-265,905,1191,0
-88,985,1181,0
112,598,971,0
166,168,747,0
157,131,664,0
139,207,637,0
100,221,601,0
99,240,624,0
140,318,769,0
294,395,921,0
253,212,984,0
313,401,1204,0
217,605,1238,0
70,527,1229,0
-64,427,1114,0
-158,359,1028,0
-273,169,932,0
-243,107,874,0
-197,31,784,0
-229,27,673,0
-305,127,626,0
-372,188,658,0
-386,257,785,0
-465,654,1127,0
-120,1021,1286,0
13,529,1190,0
-75,698,1204,0
41,845,1185,0
123,375,965,0
130,133,811,0
127,104,764,0
98,108,693,0
80,139,672,0
124,286,730,0
203,397,815,0
314,373,887,0
277,346,918,0
236,446,1033,0
195,657,1175,0
146,581,1216,0
42,415,1175,0
2,366,1161,0
-108,122,1005,0
-212,-14,918,0
-269,-32,864,0
-320,-13,795,0
-365,60,762,0
-397,137,778,0
-414,172,809,0
-463,299,1050,0
-185,711,1230,0
-239,217,1104,0
-256,511,1164,0
-87,733,1165,0
88,401,987,0
236,251,869,0
268,196,749,0
251,136,683,0
218,111,677,0
192,94,729,0
294,147,895,0
354,75,999,0
453,30,1131,0
386,354,1297,0
397,508,1362,0
403,358,1200,0
201,203,975,0
-61,156,881,0
-171,167,862,0
-209,64,790,0
-302,-45,729,0
-451,13,734,0
-584,130,751,0
-674,233,829,0
-640,326,907,0
-591,502,1083,0
-450,625,1084,0
-429,496,1032,0
-283,694,1015,0
-76,684,922,0
74,486,793,0
163,413,725,0
200,341,703,0
248,279,806,0
308,192,894,0
405,223,985,0
546,358,1036,0
432,169,988,0
243,401,1169,0
233,814,1136,0
129,630,1107,0
91,402,1013,0
-21,272,924,0
-132,240,899,0
-159,199,857,0
-125,92,777,0
-212,21,691,0
-319,84,650,0
-444,182,701,0
-437,282,793,0
-492,347,969,0
-266,624,1130,0
-312,438,1149,0
-275,671,1172,0
-87,780,1128,0
77,474,971,0
194,167,532,0
239,264,758,0
157,326,856,0
202,272,786,0
154,194,772,0
134,357,922,0
221,492,1029,0
133,329,1057,0
239,690,1310,0
320,737,1288,0
275,394,1068,0
90,299,881,0
-33,380,808,0
-126,293,700,0
-254,220,646,0
-262,241,679,0
-330,248,658,0
-410,317,676,0
-416,419,837,0
-248,570,980,0
-253,655,1137,0
-58,570,1134,0
-193,467,1100,0
-228,867,1199,0
-51,913,1102,0
52,412,856,0
107,309,745,0
145,302,701,0
150,244,669,0
158,227,699,0
186,291,767,0
204,332,806,0
352,282,911,0
395,308,1069,0
381,510,1139,0
297,419,1197,0
293,367,1186,0
232,223,1040,0
150,39,882,0
0,46,843,0
-29,103,772,0
-49,43,765,0
-107,18,812,0
-182,110,833,0
-223,179,929,0
-186,282,1073,0
-222,268,1253,0
-14,261,1252,0
-211,331,1263,0
-152,562,1275,0
52,456,1126,0
180,336,1020,0
171,232,885,0
145,130,765,0
130,67,711,0
137,71,699,0
169,87,724,0
153,108,777,0
231,232,892,0
232,177,982,0
333,381,1277,0
326,503,1289,0
326,502,1294,0
232,498,1160,0
40,358,947,0
-89,276,861,0
-155,213,742,0
-219,58,695,0
-223,9,685,0
-275,138,725,0
-318,267,782,0
-347,343,865,0
-358,425,917,0
-427,629,1106,0
-253,1060,1311,0
-114,1051,1248,0
59,946,1182,0
221,742,991,0
281,397,750,0
293,225,640,0
271,185,602,0
242,179,627,0
223,166,705,0
175,194,724,0
230,484,870,0
351,505,893,0
229,354,967,0
343,784,1145,0
278,787,1175,0
332,683,1147,0
276,387,951,0
154,233,788,0
-7,285,697,0
-141,284,640,0
-220,254,655,0
-318,296,706,0
-330,347,792,0
-191,602,965,0
-40,659,1031,0
-69,418,1102,0
1,691,1238,0
-86,804,1192,0
12,791,1143,0
157,524,978,0
199,269,763,0
214,275,701,0
198,312,667,0
182,240,623,0
197,212,653,0
255,369,806,0
496,618,976,0
553,82,899,0
635,608,1183,0
525,457,1073,0
307,170,858,0
56,366,800,0
-139,452,787,0
-211,239,733,0
-182,198,692,0
-123,288,716,0
-220,199,630,0
-433,249,678,0
-415,597,915,0
-598,601,1098,0
-224,1155,1324,0
-244,782,1202,0
-208,990,1248,0
23,1040,1220,0
178,460,932,0
184,138,719,0
156,164,672,0
123,200,622,0
146,157,684,0
84,221,824,0
116,523,1075,0
253,436,1105,0
369,153,1053,0
331,437,1140,0
163,505,1085,0
160,414,1079,0
186,422,1030,0
66,291,859,0
-54,137,762,0
-104,132,733,0
-126,118,699,0
-163,101,736,0
-156,255,879,0
-75,350,996,0
-11,230,1024,0
-25,102,1044,0
-224,114,1034,0
-216,345,1182,0
-117,460,1143,0
-225,291,986,0
-243,648,1073,0
-76,710,1105,0
98,313,933,0
150,150,853,0
124,180,816,0
79,191,780,0
49,210,787,0
67,307,872,0
139,318,932,0
163,116,860,0
4,187,984,0
174,495,1130,0
70,196,1091,0
20,236,1060,0
-110,247,1109,0
-97,224,1083,0
-90,119,981,0
-118,12,859,0
-107,29,803,0
-84,52,810,0
-34,49,844,0
27,19,880,0
39,-57,913,0
-11,-117,969,0
-24,-142,1017,0
24,-238,993,0
-154,-246,1007,0
-190,88,1153,0
-245,330,1254,0
-192,504,1327,0
72,643,1397,0
324,505,1275,0
405,50,979,0
341,-114,770,0
284,-30,698,0
189,75,703,0
202,181,848,0
383,189,962,0
371,-18,1092,0
378,314,1247,0
355,515,1366,0
372,249,1209,0
288,164,1015,0
93,71,863,0
-79,48,774,0
-194,73,754,0
-227,60,770,0
-274,101,818,0
-304,134,883,0
-226,254,1010,0
-58,328,1084,0
-17,185,1086,0
-108,276,1130,0
-69,546,1234,0
64,586,1192,0
180,284,1044,0
205,236,922,0
232,162,823,0
225,68,744,0
206,34,718,0
214,22,733,0
273,22,749,0
261,8,738,0
233,108,832,0
339,237,950,0
340,199,1031,0
301,355,1273,0
423,545,1382,0
325,486,1301,0
59,444,1207,0
-11,451,1143,0
-27,235,956,0
-20,149,773,0
-62,180,655,0
-86,255,651,0
-121,260,679,0
-177,315,795,0
-66,556,1063,0
-72,572,1168,0
72,460,1119,0
-137,646,1183,0
-124,720,1175,0
97,570,1084,0
226,327,937,0
226,256,850,0
199,220,801,0
184,198,779,0
198,185,784,0
210,208,793,0
185,283,840,0
251,354,904,0
214,322,906,0
244,537,1093,0
337,614,1159,0
347,476,1102,0
352,360,1027,0
279,270,853,0
191,178,673,0
57,176,577,0
-17,255,606,0
-79,276,663,0
-124,321,739,0
-195,422,892,0
-187,304,1019,0
-168,181,1085,0
-115,250,1176,0
-47,195,1117,0
-139,125,991,0
-103,553,1105,0
-238,658,1100,0
-90,1047,1205,0
88,977,1139,0
311,873,994,0
471,631,865,0
460,287,682,0
395,201,612,0
380,307,629,0
386,329,653,0
468,310,764,0
571,204,832,0
577,121,873,0
536,486,1114,0
653,843,1354,0
654,370,1083,0
486,242,882,0
276,364,779,0
122,335,703,0
38,179,654,0
-49,149,654,0
-186,208,730,0
-279,308,850,0
-298,280,945,0
-200,352,1041,0
-198,627,1305,0
193,692,1312,0
59,163,1148,0
-6,598,1184,0
78,680,1177,0
283,394,986,0
357,234,844,0
312,168,701,0
208,114,594,0
147,119,632,0
156,110,728,0
170,107,747,0
162,124,768,0
148,56,753,0
222,-16,747,0
134,-117,675,0
-43,158,968,0
-44,712,1472,0
287,1135,1734,0
380,856,1462,0
246,413,1113,0
82,203,897,0
-22,149,802,0
-122,75,709,0
-217,171,700,0
-290,317,781,0
-308,388,880,0
-208,463,989,0
-200,460,1047,0
-18,642,1253,0
-60,507,1151,0
-77,624,1105,0
-52,678,1078,0
77,532,961,0
163,382,864,0
178,281,784,0
172,243,740,0
179,208,723,0
191,189,724,0
190,248,775,0
225,359,890,0
326,357,953,0
297,274,968,0
304,509,1155,0
324,616,1164,0
308,520,1053,0
252,427,908,0
188,399,781,0
140,370,710,0
70,269,656,0
47,280,698,0
17,274,767,0
28,262,842,0
74,242,895,0
94,174,880,0
45,46,872,0
-46,-60,948,0
-55,-156,993,0
-24,-225,961,0
-116,-90,901,0
-590,234,1060,0
-396,1132,1503,0
-220,1007,1490,0
-43,1105,1514,0
159,1093,1407,0
392,447,1029,0
502,148,750,0
539,168,624,0
543,32,475,0
485,44,486,0
588,270,618,0
726,81,680,0
819,217,1069,0
988,589,1266,0
825,583,1300,0
571,439,961,0
298,372,699,0
-42,583,662,0
-294,612,704,0
-506,431,748,0
-591,461,814,0
-533,450,956,0
-354,344,976,0
-259,206,922,0
-197,420,1078,0
5,913,1353,0
237,1044,1479,0
389,476,1154,0
359,384,978,0
342,350,846,0
328,231,697,0
297,110,563,0
272,126,583,0
315,131,698,0
447,182,840,0
531,113,864,0
475,136,965,0
496,515,1140,0
494,831,1210,0
361,471,980,0
237,363,817,0
90,421,771,0
-71,358,750,0
-141,279,793,0
-168,275,856,0
-265,353,946,0
-301,381,1032,0
-286,411,1093,0
-296,399,1101,0
-166,648,1269,0
-134,722,1142,0
-66,840,1118,0
143,647,952,0
258,287,717,0
268,166,625,0
226,156,611,0
202,138,618,0
234,109,668,0
305,116,732,0
383,187,864,0
493,174,924,0
443,116,971,0
481,515,1161,0
414,635,1241,0
453,515,1147,0
374,373,972,0
234,190,757,0
69,195,639,0
-55,283,666,0
-101,258,716,0
-98,350,837,0
-15,485,1052,0
21,407,1088,0
-7,336,1132,0
-75,370,1160,0
-141,432,1157,0
-185,528,1168,0
-148,670,1163,0
-36,699,1151,0
180,655,1057,0
270,297,797,0
226,76,655,0
170,124,677,0
144,130,708,0
171,66,725,0
236,117,758,0
259,267,867,0
318,314,964,0
206,161,912,0
327,472,1028,0
256,632,1075,0
271,729,1073,0
209,512,939,0
128,449,876,0
27,338,751,0
-128,261,694,0
-264,329,749,0
-319,459,869,0
-304,497,966,0
-316,482,1004,0
-281,571,1083,0
-320,579,1106,0
-153,925,1200,0
-155,584,906,0
-254,681,893,0
-202,833,898,0
-23,570,704,0
53,327,590,0
90,328,592,0
91,306,589,0
105,247,637,0
136,349,794,0
218,465,951,0
351,527,1041,0
406,426,1035,0
346,612,1160,0
284,546,1003,0
183,589,1037,0
257,615,1052,0
247,392,899,0
116,135,770,0
-27,218,751,0
-71,235,769,0
-46,154,768,0
-28,159,807,0
-44,208,893,0
-58,192,975,0
-121,302,1082,0
-30,634,1433,0
144,331,1199,0
-58,304,1158,0
-166,375,1110,0
-142,256,981,0
-13,202,856,0
50,187,796,0
65,151,723,0
73,137,737,0
116,131,791,0
189,179,861,0
228,243,962,0
332,259,1046,0
303,114,1027,0
430,365,1229,0
406,528,1253,0
383,475,1134,0
322,456,973,0
205,268,740,0
62,159,622,0
-67,175,653,0
-151,144,727,0
-163,183,882,0
-165,289,1041,0
-133,229,1163,0
-51,212,1266,0
2,103,1184,0
-73,148,1260,0
-35,227,1201,0
-59,373,1183,0
-31,365,1122,0
62,338,1021,0
143,193,838,0
131,58,723,0
111,48,735,0
134,26,793,0
202,-14,872,0
296,33,943,0
357,58,996,0
430,35,989,0
360,0,957,0
359,144,963,0
297,194,1027,0
383,388,1137,0
486,291,1094,0
418,83,854,0
191,77,766,0
8,128,802,0
-65,56,795,0
-46,68,848,0
-21,144,953,0
-8,181,1045,0
6,168,1128,0
50,112,1170,0
-96,93,1193,0
-22,259,1243,0
-122,238,1179,0
-127,406,1161,0
-7,433,1127,0
146,268,933,0
149,77,744,0
123,49,706,0
124,29,735,0
145,-16,766,0
184,54,864,0
218,148,979,0
298,197,1105,0
363,109,1067,0
335,319,1200,0
432,366,1120,0
303,431,1041,0
337,461,998,0
367,365,830,0
294,217,660,0
141,205,627,0
-11,276,713,0
-107,259,802,0
-111,340,956,0
-71,413,1090,0
-81,282,1141,0
-94,304,1227,0
-293,276,1224,0
-6,594,1320,0
-90,398,1141,0
-81,545,1088,0
-27,486,978,0
30,258,771,0
51,171,687,0
82,195,688,0
101,150,678,0
123,103,744,0
152,184,858,0
179,293,987,0
273,339,1105,0
370,143,1011,0
211,307,1093,0
294,556,1174,0
277,609,1163,0
343,429,1017,0
308,309,846,0
209,164,676,0
62,157,610,0
-109,218,676,0
-196,228,787,0
-154,296,911,0
-69,337,1031,0
-56,330,1132,0
-37,330,1170,0
-255,397,1198,0
-41,676,1269,0
-125,368,1013,0
-197,590,1010,0
-105,627,991,0
40,364,798,0
56,236,686,0
10,248,685,0
7,260,693,0
31,182,707,0
91,227,794,0
129,340,955,0
199,372,1067,0
290,185,1018,0
189,420,1196,0
302,492,1171,0
181,594,1105,0
229,660,1068,0
223,486,894,0
137,377,697,0
-25,282,584,0
-151,246,649,0
-177,275,712,0
-170,297,804,0
-145,364,960,0
-128,372,1072,0
-140,346,1127,0
-123,368,1154,0
-258,379,1223,0
-69,461,1205,0
-175,287,1008,0
-209,438,1073,0
-100,385,1028,0
20,223,853,0
47,133,784,0
7,67,737,0
-6,25,748,0
-6,49,859,0
37,61,907,0
71,100,988,0
173,172,1133,0
159,28,1050,0
215,250,1271,0
128,242,1204,0
135,271,1228,0
193,255,1147,0
186,110,932,0
66,-19,797,0
-17,-39,722,0
-87,-94,703,0
-138,-13,797,0
-163,39,913,0
-162,76,1010,0
-170,97,1107,0
-131,81,1161,0
-252,116,1215,0
-100,201,1247,0
-191,39,1040,0
-279,144,1068,0
-199,189,1043,0
-54,179,962,0
-24,66,844,0
-17,16,774,0
-4,-7,794,0
36,17,882,0
87,31,943,0
52,41,1004,0
95,119,1136,0
130,11,1085,0
108,192,1207,0
161,289,1212,0
100,375,1199,0
140,336,1133,0
159,234,976,0
85,67,799,0
-15,37,737,0
-79,12,712,0
-121,28,791,0
-123,122,916,0
-116,180,1040,0
-145,156,1134,0
-123,105,1176,0
-221,48,1112,0
-231,177,1209,0
-199,178,1116,0
-299,338,1134,0
-255,402,1142,0
-67,313,986,0
-20,116,797,0
-24,52,704,0
-33,18,692,0
-27,29,777,0
36,137,938,0
90,159,1009,0
106,215,1113,0
191,158,1116,0
20,53,1068,0
113,254,1179,0
59,360,1208,0
115,440,1255,0
93,78,857,0
-26,-43,729,0
-97,-31,697,0
-136,-30,741,0
-133,78,871,0
-93,203,1011,0
-93,182,1060,0
-116,198,1141,0
-221,243,1268,0
-52,339,1319,0
-78,178,1091,0
-219,195,998,0
-250,261,963,0
-173,240,860,0
-131,208,825,0
-77,191,802,0
-55,113,765,0
-54,92,814,0
-2,120,900,0
59,149,982,0
54,187,1085,0
153,227,1194,0
160,61,1091,0
124,141,1256,0
195,402,1251,0
158,383,1151,0
162,369,1060,0
120,195,867,0
62,68,733,0
-14,33,707,0
-77,20,727,0
-110,23,819,0
-102,110,934,0
-93,161,1024,0
-101,183,1121,0
-82,153,1127,0
-239,211,1228,0
-49,338,1264,0
-134,72,1007,0
-267,297,1056,0
-208,340,1044,0
-47,226,890,0
-28,145,817,0
-36,109,759,0
-43,61,746,0
-17,94,845,0
57,164,956,0
90,149,1000,0
98,242,1138,0
122,201,1176,0
208,340,1325,0
292,358,1197,0
144,313,1052,0
136,365,1038,0
172,260,926,0
129,186,819,0
-3,139,753,0
-90,149,717,0
-127,138,728,0
-114,180,837,0
-59,264,949,0
-103,203,978,0
-242,220,1123,0
-324,258,1260,0
-285,309,1362,0
-99,323,1279,0
12,298,1080,0
-20,142,811,0
-16,236,788,0
10,232,742,0
-7,148,747,0
-43,163,820,0
-29,132,922,0
10,113,990,0
38,94,1016,0
45,42,996,0
51,92,1064,0
153,131,1113,0
156,177,1186,0
341,543,1331,0
278,376,1130,0
230,417,1093,0
297,384,963,0
281,209,754,0
169,171,639,0
86,158,551,0
20,224,548,0
-39,264,680,0
-42,356,865,0
-31,314,991,0
-134,305,1097,0
-214,391,1267,0
-225,368,1275,0
-310,439,1333,0
-151,653,1344,0
-193,374,993,0
-269,490,925,0
-208,566,862,0
-106,414,703,0
-78,354,675,0
-30,321,677,0
0,211,667,0
28,218,758,0
88,251,876,0
159,266,974,0
220,313,1122,0
343,311,1160,0
266,186,1087,0
293,409,1178,0
290,356,1039,0
255,463,1021,0
280,427,957,0
248,303,831,0
145,178,724,0
25,179,688,0
-65,206,719,0
-110,211,803,0
-71,267,911,0
-17,293,991,0
-57,319,1065,0
-85,377,1149,0
-175,465,1254,0
-42,630,1330,0
-48,370,1036,0
-183,410,936,0
-202,504,890,0
-136,412,793,0
-90,362,772,0
-71,316,767,0
-55,220,723,0
-70,174,766,0
-38,213,863,0
34,200,932,0
91,195,986,0
121,267,1070,0
161,277,1080,0
85,310,1141,0
224,497,1232,0
290,397,1032,0
151,445,941,0
128,495,926,0
152,343,815,0
109,302,772,0
-19,227,745,0
-75,235,780,0
-75,178,816,0
-46,208,899,0
-2,265,1007,0
27,247,1018,0
-30,260,1062,0
-79,295,1083,0
-216,302,1081,0
-153,600,1266,0
-82,435,1058,0
-213,400,929,0
-266,596,952,0
-162,480,835,0
-93,373,762,0
-75,358,752,0
-64,242,705,0
-74,185,754,0
-50,183,833,0
26,200,920,0
58,227,979,0
85,339,1114,0
210,329,1128,0
167,380,1207,0
297,541,1195,0
184,460,1048,0
167,535,1038,0
205,393,908,0
170,238,768,0
38,161,687,0
-83,139,639,0
-183,156,679,0
-183,271,851,0
-86,386,1001,0
-44,235,1003,0
-79,360,1137,0
-89,274,1100,0
-198,397,1220,0
-31,562,1233,0
-104,328,998,0
-207,505,955,0
-202,507,890,0
-92,338,748,0
-51,244,726,0
-11,238,748,0
20,146,768,0
69,177,884,0
169,227,955,0
184,148,929,0
133,287,1048,0
197,260,1054,0
193,383,1197,0
327,580,1229,0
235,441,1068,0
197,514,1060,0
191,388,927,0
144,276,837,0
42,205,807,0
-21,129,766,0
-64,107,788,0
-82,111,860,0
-34,149,940,0
-12,164,983,0
-77,157,1052,0
-42,227,1144,0
-106,185,1124,0
-55,384,1272,0
-42,263,1064,0
-217,260,945,0
-266,409,998,0
-95,331,918,0
15,248,848,0
38,154,797,0
29,36,747,0
11,-40,803,0
49,-29,913,0
105,22,1008,0
127,91,1109,0
193,177,1174,0
175,95,1098,0
170,241,1269,0
268,276,1181,0
153,274,1067,0
161,259,1037,0
154,185,903,0
75,113,825,0
-5,47,767,0
-38,-3,736,0
-65,6,834,0
-9,42,947,0
26,42,1010,0
-27,58,1082,0
-76,85,1194,0
-128,87,1208,0
-180,189,1315,0
-92,205,1242,0
-220,140,1092,0
-261,148,1056,0
-174,180,963,0
-112,109,863,0
-82,20,772,0
-31,-38,708,0
3,-54,739,0
18,-55,803,0
66,-1,925,0
113,21,1068,0
245,76,1195,0
219,-11,1198,0
379,169,1313,0
373,149,1179,0
321,123,1091,0
380,138,1017,0
425,80,837,0
350,11,741,0
240,-31,726,0
161,-51,725,0
141,-40,822,0
154,31,951,0
171,53,1029,0
126,15,1061,0
95,-12,1108,0
25,0,1133,0
-12,120,1247,0
72,244,1268,0
-23,209,1094,0
-117,317,1107,0
-42,292,1014,0
33,168,888,0
39,58,809,0
44,-33,758,0
17,-83,768,0
11,-63,857,0
72,-26,949,0
139,0,1001,0
132,46,1063,0
188,82,1116,0
160,31,1092,0
319,334,1248,0
407,283,1101,0
246,287,1016,0
228,349,1018,0
251,189,894,0
198,125,757,0
-2,166,739,0
-23,125,727,0
30,132,802,0
152,288,1009,0
209,167,1061,0
202,143,1167,0
191,189,1242,0
117,236,1320,0
186,348,1314,0
58,228,1109,0
-101,372,1062,0
-99,425,1036,0
0,329,908,0
34,208,819,0
59,162,746,0
63,152,734,0
90,118,759,0
174,155,838,0
231,186,899,0
244,238,1000,0
367,287,1115,0
442,124,998,0
265,148,1019,0
383,380,1132,0
465,410,1068,0
442,402,997,0
330,339,897,0
240,272,766,0
139,191,676,0
52,181,684,0
30,212,729,0
6,233,820,0
-10,309,942,0
-27,319,1020,0
-59,316,1114,0
-79,294,1132,0
-92,557,1357,0
150,455,1170,0
-4,359,1010,0
-100,598,1048,0
-14,511,962,0
75,303,814,0
79,245,808,0
90,192,766,0
94,155,768,0
144,167,838,0
218,200,884,0
213,182,902,0
212,297,1025,0
324,240,1033,0
224,63,912,0
262,405,1191,0
386,492,1230,0
453,335,1122,0
345,311,1025,0
204,160,826,0
94,109,721,0
-12,119,702,0
-71,120,722,0
-64,210,831,0
-29,274,946,0
-10,241,1008,0
8,243,1109,0
27,231,1138,0
-106,184,1093,0
-54,317,1165,0
-128,265,1075,0
-179,470,1127,0
-43,495,1119,0
85,301,943,0
63,154,802,0
42,142,760,0
40,93,717,0
82,99,798,0
178,188,904,0
208,167,923,0
247,287,1073,0
332,192,1027,0
226,260,1146,0
349,424,1203,0
259,345,1127,0
274,414,1122,0
230,234,941,0
137,146,786,0
7,162,742,0
-62,157,738,0
-89,114,774,0
-53,213,910,0
-17,196,965,0
-49,158,1023,0
-68,227,1145,0
-43,177,1097,0
-156,227,1161,0
-4,412,1222,0
-70,186,1072,0
-101,414,1116,0
19,351,1030,0
89,123,821,0
60,78,742,0
28,138,742,0
51,137,761,0
138,190,873,0
256,245,994,0
311,227,1064,0
416,214,1116,0
299,40,1056,0
416,274,1123,0
257,203,1048,0
261,439,1152,0
367,427,1138,0
322,146,865,0
71,94,754,0
-95,159,746,0
-175,141,734,0
-157,112,799,0
-99,168,909,0
-98,195,975,0
-113,179,1050,0
-115,186,1095,0
-210,201,1136,0
-67,368,1187,0
-182,236,1088,0
-214,450,1112,0
-28,427,1069,0
107,350,939,0
121,245,838,0
132,149,766,0
108,99,768,0
121,125,863,0
198,133,953,0
276,145,1056,0
388,150,1091,0
319,0,988,0
280,265,1130,0
290,290,1139,0
309,354,1146,0
371,285,1084,0
254,169,929,0
113,53,783,0
-30,33,751,0
-56,35,760,0
-21,-5,804,0
78,47,914,0
141,93,1025,0
106,33,1063,0
80,73,1154,0
56,34,1145,0
15,100,1216,0
29,81,1129,0
-196,136,1054,0
-164,339,1085,0
71,384,1071,0
171,222,895,0
154,128,806,0
98,70,773,0
83,45,770,0
104,22,833,0
165,53,924,0
234,109,994,0
363,149,1096,0
434,12,1033,0
269,104,1119,0
443,345,1211,0
379,285,1133,0
397,285,1082,0
277,172,945,0
191,112,801,0
70,120,752,0
2,135,762,0
12,131,806,0
66,196,883,0
101,201,954,0
94,149,938,0
-31,127,949,0
-151,201,1043,0
-148,218,1066,0
-216,216,1161,0
135,650,1351,0
134,453,1194,0
77,564,1113,0
32,666,1064,0
123,488,888,0
149,322,732,0
165,254,698,0
150,211,681,0
159,197,713,0
209,251,842,0
252,171,870,0
271,92,911,0
361,75,959,0
456,217,1079,0
540,396,1162,0
474,404,1157,0
387,558,1170,0
287,485,1072,0
186,276,885,0
66,160,740,0
-18,78,689,0
-45,83,696,0
-46,131,792,0
6,233,943,0
36,226,1033,0
2,262,1141,0
-11,318,1232,0
-33,219,1181,0
-106,187,1193,0
-144,223,1163,0
-171,388,1142,0
-37,568,1132,0
127,403,952,0
154,310,808,0
153,200,716,0
138,105,686,0
162,53,739,0
242,-18,808,0
290,-32,867,0
353,114,1016,0
379,-17,1014,0
302,45,1186,0
391,278,1179,0
221,281,1127,0
202,331,1143,0
169,243,1003,0
134,111,877,0
32,36,792,0
-65,74,779,0
-120,83,830,0
-88,66,900,0
-32,130,982,0
-51,146,1052,0
-65,192,1170,0
-159,214,1200,0
-70,426,1330,0
-14,269,1190,0
-115,264,1082,0
-187,370,1036,0
-74,342,934,0
27,155,766,0
41,96,709,0
-1,96,725,0
6,153,837,0
137,240,1000,0
310,248,1020,0
403,316,1138,0
509,202,1042,0
393,-64,919,0
433,207,1019,0
361,284,1000,0
368,385,1059,0
311,302,973,0
101,266,899,0
-92,249,821,0
-144,253,751,0
-151,167,737,0
-157,158,815,0
-130,226,951,0
-141,156,1061,0
-177,125,1149,0
-214,279,1301,0
-6,552,1407,0
-111,36,1127,0
-279,254,1090,0
-255,375,1015,0
-175,163,830,0
-75,179,802,0
-19,180,813,0
48,46,765,0
132,36,843,0
165,36,926,0
189,27,974,0
222,26,1056,0
310,-56,1049,0
213,-50,1093,0
267,261,1164,0
209,266,1147,0
304,306,1092,0
311,240,938,0
221,110,773,0
81,92,720,0
-2,54,807,0
22,-94,907,0
101,-221,935,0
156,-157,1016,0
89,-118,1092,0
38,-142,1089,0
-157,14,1211,0
-113,98,1172,0
-177,136,1228,0
-52,262,1247,0
119,160,1063,0
167,136,916,0
178,86,810,0
209,55,805,0
244,17,823,0
206,11,848,0
157,101,981,0
201,135,1064,0
395,83,1087,0
406,-33,1112,0
478,136,1119,0
436,132,1063,0
412,215,1019,0
325,265,984,0
-7,264,908,0
-157,250,864,0
-141,62,785,0
-84,24,789,0
-32,-40,838,0
83,-47,876,0
66,-239,926,0
-3,-397,1122,0
-5,73,1396,0
-275,305,1438,0
-228,468,1103,0
-476,117,956,0
-357,-3,1069,0
-96,293,1147,0
33,125,952,0
23,-47,801,0
-82,-48,756,0
-122,-37,790,0
-107,58,920,0
-9,67,988,0
26,0,1004,0
76,88,1073,0
36,-31,1103,0
222,81,1148,0
154,53,1101,0
136,49,1020,0
244,82,1045,0
262,21,918,0
147,-15,908,0
14,-69,903,0
-65,-131,821,0
-63,-90,876,0
-56,-57,937,0
-39,-70,984,0
-90,-77,1078,0
-86,-86,1152,0
-162,-61,1187,0
-141,94,1197,0
-266,62,1057,0
-391,178,1062,0
-266,333,1202,0
28,399,1168,0
155,215,949,0
190,88,819,0
173,0,740,0
146,-54,745,0
153,-62,801,0
229,-3,876,0
253,128,1041,0
422,253,1165,0
414,91,1165,0
493,447,1210,0
311,511,1148,0
263,396,1079,0
256,283,970,0
232,171,830,0
134,84,737,0
31,105,730,0
-29,120,756,0
-48,98,826,0
-15,127,950,0
-17,123,1028,0
-53,187,1135,0
-111,156,1178,0
-190,317,1292,0
-41,342,1245,0
-82,275,1217,0
42,414,1202,0
190,226,1022,0
202,111,848,0
190,66,738,0
162,23,701,0
154,63,739,0
154,51,793,0
137,112,892,0
147,200,1028,0
297,270,1036,0
244,70,1106,0
437,378,1150,0
431,187,1124,0
576,215,1092,0
576,159,1010,0
410,98,753,0
168,111,674,0
34,212,729,0
-48,176,750,0
-50,145,834,0
-6,79,965,0
-4,131,1118,0
-17,183,1320,0
-71,88,1448,0
38,281,1485,0
4,175,1294,0
-69,301,1208,0
41,325,1064,0
140,163,831,0
144,43,685,0
180,20,688,0
200,-47,714,0
238,-82,775,0
291,-83,864,0
352,-10,956,0
416,-36,1043,0
484,-124,1003,0
362,-33,1088,0
297,207,1129,0
222,312,1252,0
330,236,1193,0
291,93,982,0
124,60,812,0
-33,54,732,0
-162,40,704,0
-212,-16,736,0
-244,18,810,0
-270,33,937,0
-270,-54,1075,0
-268,-49,1183,0
-256,-75,1270,0
-200,-6,1387,0
-251,44,1349,0
-296,188,1309,0
-153,256,1174,0
0,160,933,0
7,94,774,0
44,134,738,0
101,93,782,0
121,0,832,0
147,65,875,0
119,104,921,0
155,137,1023,0
164,18,1058,0
259,173,1126,0
184,326,1201,0
192,303,1203,0
251,264,1172,0
209,181,1040,0
-4,65,934,0
-100,64,848,0
-179,35,813,0
-201,5,863,0
-188,41,927,0
-193,3,978,0
-226,-10,1084,0
-169,36,1198,0
-161,-34,1168,0
-175,-44,1140,0
-153,113,1131,0
-201,373,1141,0
-222,468,1113,0
-114,368,1026,0
15,284,897,0
89,149,810,0
103,46,799,0
128,11,845,0
177,-42,888,0
202,-18,925,0
189,106,1059,0
325,147,1178,0
348,-77,1078,0
345,121,1130,0
268,218,1184,0
324,219,1169,0
321,157,1047,0
91,49,887,0
-135,49,871,0
-257,33,847,0
-235,-6,813,0
-186,9,830,0
-225,23,876,0
-303,-49,933,0
-387,-140,1040,0
-443,-196,1043,0
-382,-92,1139,0
-380,-90,1115,0
-537,-14,1068,0
-423,238,1125,0
-197,191,992,0
-62,187,903,0
-7,102,827,0
2,-11,767,0
-25,-108,787,0
24,-83,900,0
66,-4,978,0
97,105,1131,0
190,64,1180,0
162,73,1210,0
89,299,1185,0
-80,274,1168,0
-28,345,1170,0
0,188,1024,0
-41,-13,822,0
-161,-22,756,0
-248,21,775,0
-273,-36,824,0
-253,-51,902,0
-261,-36,977,0
-275,-41,1060,0
-304,-30,1132,0
-319,155,1317,0
-176,145,1231,0
-342,160,1186,0
-312,380,1232,0
-76,234,1079,0
0,110,884,0
10,132,843,0
27,124,841,0
86,7,853,0
162,2,909,0
168,27,945,0
163,97,1039,0
263,77,1071,0
282,-23,1096,0
312,212,1149,0
268,249,1184,0
345,151,1119,0
303,29,960,0
108,-1,846,0
-66,0,793,0
-149,7,789,0
-167,-36,836,0
-180,-52,928,0
-210,-35,1037,0
-215,-60,1116,0
-150,-50,1176,0
-17,-96,1134,0
-250,-255,991,0
-369,-35,1067,0
-370,163,1212,0
-114,347,1238,0
118,200,1145,0
160,223,963,0
146,94,820,0
147,76,778,0
169,49,768,0
228,122,837,0
232,140,920,0
324,166,1054,0
382,-28,1155,0
465,200,1215,0
316,341,1326,0
345,221,1178,0
353,160,1042,0
220,55,797,0
-16,85,741,0
-167,157,744,0
-181,162,777,0
-187,196,859,0
-219,181,927,0
-292,162,980,0
-357,161,1072,0
-361,164,1151,0
-330,207,1219,0
-360,224,1178,0
-406,382,1220,0
-172,404,1237,0
94,240,1066,0
102,112,848,0
60,23,708,0
18,0,661,0
16,-14,701,0
65,62,880,0
145,165,1039,0
265,207,1196,0
421,117,1184,0
286,4,1141,0
287,356,1171,0
133,266,1103,0
253,374,979,0
239,48,761,0
120,27,680,0
43,87,666,0
-22,50,684,0
-66,91,811,0
-68,189,982,0
-79,161,1082,0
-103,96,1167,0
-197,150,1245,0
-251,293,1346,0
-150,339,1359,0
-207,190,1201,0
-240,329,1164,0
-105,337,1063,0
-1,145,825,0
27,89,698,0
47,87,650,0
34,59,639,0
30,-5,713,0
45,83,856,0
66,216,1067,0
216,261,1227,0
296,87,1292,0
334,493,1310,0
96,497,1194,0
129,412,1081,0
238,407,979,0
188,157,720,0
58,88,607,0
3,172,622,0
-10,151,610,0
-88,172,674,0
-186,292,867,0
-316,328,1033,0
-345,408,1247,0
-296,503,1388,0
-193,547,1407,0
-41,662,1285,0
-241,487,1063,0
-268,652,1002,0
-158,571,811,0
-89,324,609,0
-41,364,614,0
17,338,599,0
26,220,629,0
26,197,782,0
100,374,942,0
208,446,1153,0
437,315,1191,0
582,239,1167,0
576,542,1056,0
420,457,901,0
409,506,891,0
476,587,846,0
338,347,612,0
131,282,570,0
16,328,595,0
-69,307,628,0
-157,277,741,0
-202,438,1010,0
-117,516,1220,0
-73,275,1213,0
-148,397,1228,0
-330,562,1341,0
-147,654,1238,0
-209,544,1144,0
-132,683,1079,0
3,578,925,0
25,264,711,0
0,247,592,0
3,244,544,0
26,110,584,0
97,218,698,0
223,294,842,0
370,204,989,0
532,163,1083,0
498,223,1087,0
411,370,1060,0
330,462,1117,0
417,515,1122,0
457,285,981,0
281,131,794,0
10,170,721,0
-109,163,720,0
-82,111,728,0
-36,120,831,0
24,212,1001,0
52,177,1082,0
24,132,1132,0
-106,149,1201,0
-199,269,1310,0
-272,314,1273,0
-336,380,1263,0
-211,406,1145,0
44,341,981,0
130,208,797,0
114,87,640,0
83,62,630,0
107,121,719,0
178,127,816,0
224,181,900,0
308,260,1038,0
357,181,1110,0
460,340,1129,0
298,479,1169,0
354,435,1144,0
375,228,950,0
172,172,765,0
-95,211,673,0
-165,186,721,0
-89,126,793,0
14,108,958,0
64,135,1105,0
-15,112,1154,0
-80,149,1241,0
-139,168,1219,0
-86,355,1264,0
-181,389,1179,0
-201,436,1081,0
-86,433,1021,0
102,376,949,0
184,232,845,0
167,46,727,0
147,7,719,0
192,-11,759,0
269,-21,832,0
312,35,885,0
330,58,933,0
412,1,949,0
357,41,1056,0
429,265,1122,0
407,274,1139,0
535,323,1162,0
465,242,969,0
216,109,767,0
15,136,793,0
-34,55,825,0
23,83,940,0
64,116,1042,0
33,116,1095,0
23,115,1148,0
60,136,1154,0
-139,124,1166,0
-46,308,1225,0
-72,286,1135,0
-99,340,1116,0
41,344,1097,0
181,197,951,0
184,109,851,0
184,75,796,0
187,-14,736,0
212,-44,760,0
209,-23,815,0
179,32,916,0
223,17,995,0
245,-58,1094,0
241,313,1217,0
205,453,1325,0
335,269,1184,0
304,244,1011,0
127,16,735,0
-53,60,698,0
-154,36,710,0
-159,-1,741,0
-163,93,865,0
-181,168,978,0
-206,165,1085,0
-153,192,1193,0
-195,163,1284,0
-110,186,1242,0
-231,221,1250,0
-239,325,1231,0
-86,361,1173,0
37,205,962,0
61,124,818,0
65,121,771,0
75,78,765,0
94,25,801,0
156,101,890,0
191,175,1012,0
281,197,1103,0
231,88,1116,0
262,308,1144,0
144,371,1138,0
227,384,1086,0
259,189,899,0
176,88,724,0
13,99,701,0
-94,153,770,0
-88,104,838,0
-120,111,937,0
-182,135,1077,0
-217,142,1201,0
-152,120,1279,0
-115,122,1254,0
-140,142,1217,0
-248,226,1220,0
-237,383,1238,0
-163,387,1180,0
-30,312,994,0
69,160,800,0
100,147,716,0
109,132,711,0
119,95,748,0
196,136,882,0
287,90,938,0
322,88,1037,0
401,67,1079,0
318,-8,1097,0
360,237,1174,0
380,370,1242,0
404,203,1100,0
291,184,950,0
-24,175,856,0
-264,205,759,0
-306,141,727,0
-252,91,747,0
-209,75,842,0
-171,57,972,0
-177,1,1107,0
-192,29,1205,0
-271,43,1236,0
-155,279,1293,0
-234,180,1239,0
-215,366,1189,0
-85,335,1078,0
11,159,868,0
36,76,713,0
33,82,688,0
61,79,723,0
101,29,775,0
144,101,898,0
241,356,1107,0
445,307,1140,0
434,-71,993,0
435,327,1134,0
447,574,1158,0
462,377,1043,0
436,88,841,0
322,204,718,0
143,229,637,0
-24,298,606,0
-210,330,723,0
-262,342,900,0
-335,242,1022,0
-344,185,1186,0
-295,281,1317,0
-345,368,1412,0
-47,549,1355,0
-118,250,1105,0
-173,483,1063,0
-95,559,1012,0
25,365,859,0
95,279,780,0
130,214,714,0
135,170,683,0
122,161,729,0
129,175,808,0
125,197,896,0
234,278,1041,0
311,283,1095,0
380,387,1205,0
356,519,1206,0
362,449,1162,0
355,246,1010,0
221,187,841,0
17,157,719,0
-142,192,677,0
-207,220,715,0
-246,205,788,0
-292,248,920,0
-297,248,1074,0
-208,280,1204,0
-108,234,1262,0
-161,247,1277,0
-213,384,1242,0
-237,524,1173,0
-111,596,1088,0
110,503,867,0
166,299,596,0
132,283,559,0
113,359,661,0
188,395,719,0
376,360,858,0
547,148,883,0
609,156,1127,0
616,170,1147,0
501,540,1094,0
482,592,1049,0
395,318,976,0
207,265,859,0
-24,236,811,0
-151,138,705,0
-232,66,700,0
-177,2,777,0
-99,-30,896,0
-54,-21,1020,0
-49,-17,1153,0
-232,37,1340,0
-243,297,1336,0
-436,356,1339,0
-327,521,1218,0
-46,502,1013,0
101,258,714,0
106,166,574,0
67,198,603,0
67,280,720,0
176,289,892,0
426,212,1034,0
641,42,1082,0
730,-60,1065,0
752,224,1098,0
508,390,1123,0
483,291,1005,0
565,314,907,0
430,276,671,0
158,238,594,0
10,345,636,0
-104,215,676,0
-222,97,808,0
-226,188,1007,0
-163,170,1148,0
-68,187,1324,0
-164,290,1420,0
55,464,1395,0
-11,374,1311,0
-47,629,1195,0
65,638,1077,0
202,382,829,0
272,338,752,0
307,250,713,0
305,97,694,0
302,70,771,0
364,27,858,0
393,28,936,0
437,41,985,0
364,-23,1031,0
390,119,1084,0
345,349,1138,0
318,352,1094,0
238,254,972,0
58,216,875,0
-134,184,832,0
-187,70,802,0
-172,-7,823,0
-96,0,852,0
-107,40,927,0
-146,26,1026,0
-223,77,1105,0
-272,106,1160,0
-314,14,1033,0
-464,80,1038,0
-540,261,1152,0
-474,403,1182,0
-194,453,1133,0
33,289,966,0
108,71,762,0
82,42,744,0
60,-3,785,0
74,19,892,0
166,77,1033,0
226,180,1143,0
205,176,1179,0
229,191,1214,0
176,362,1196,0
154,434,1188,0
244,306,1067,0
236,146,837,0
99,74,671,0
-86,110,616,0
-183,132,615,0
-213,176,697,0
-254,263,863,0
-250,300,1051,0
-266,191,1128,0
-319,173,1255,0
-346,175,1339,0
-231,163,1138,0
-432,234,1056,0
-532,381,1041,0
-373,439,1049,0
-168,346,942,0
-121,209,852,0
-130,141,845,0
-86,186,888,0
-25,101,895,0
89,78,994,0
170,41,1061,0
194,-7,1071,0
74,-190,1029,0
-52,69,1086,0
-149,118,1119,0
12,193,1161,0
196,216,1164,0
127,38,927,0
-75,-31,840,0
-185,-60,736,0
-275,-124,724,0
-336,-86,829,0
-345,34,955,0
-361,91,1079,0
-356,138,1188,0
-315,265,1352,0
-144,263,1306,0
-201,192,1204,0
-274,260,1187,0
-125,210,1035,0
-2,93,800,0
33,116,734,0
53,93,697,0
48,47,707,0
70,87,853,0
151,180,1016,0
263,194,1119,0
363,51,1093,0
262,24,1183,0
319,177,1162,0
222,421,1280,0
217,290,1172,0
142,110,968,0
-2,56,793,0
-199,37,725,0
-297,26,732,0
-313,36,790,0
-289,35,898,0
-267,-6,980,0
-250,-5,1089,0
-163,27,1207,0
-117,-18,1227,0
-144,-4,1186,0
-319,91,1201,0
-339,238,1215,0
-170,269,1143,0
-37,184,946,0
22,150,790,0
47,104,730,0
61,53,727,0
106,50,838,0
156,146,995,0
219,187,1123,0
352,114,1177,0
377,-14,1137,0
337,110,1159,0
268,124,1087,0
323,140,1070,0
372,117,1044,0
215,-12,885,0
10,-11,837,0
-118,-13,815,0
-131,-134,754,0
-134,-130,768,0
-139,-40,877,0
-138,-33,974,0
-113,-9,1103,0
-115,-34,1160,0
-164,34,1254,0
-128,34,1274,0
-165,106,1262,0
-115,211,1294,0
61,204,1193,0
171,89,995,0
189,11,827,0
167,-8,739,0
178,-14,739,0
225,-41,774,0
226,-1,858,0
216,111,1043,0
297,99,1152,0
312,-7,1193,0
343,133,1240,0
333,162,1182,0
382,169,1116,0
410,66,988,0
307,-66,818,0
129,-67,749,0
9,-45,698,0
-88,-36,743,0
-195,43,874,0
-269,83,1013,0
-291,66,1070,0
-281,-17,1097,0
-245,-57,1112,0
-329,-127,1057,0
-365,55,1222,0
-382,142,1280,0
-265,187,1268,0
-76,176,1145,0
38,-37,853,0
48,-119,684,0
26,-36,690,0
18,-86,727,0
37,-59,798,0
10,109,967,0
-35,237,1153,0
96,329,1295,0
66,284,1285,0
106,529,1148,0
-46,498,1155,0
102,544,1142,0
157,139,945,0
58,-44,817,0
-59,5,768,0
-113,27,729,0
-123,17,750,0
-144,48,806,0
-208,91,915,0
-240,118,1043,0
-223,184,1194,0
-304,212,1293,0
-181,368,1317,0
-324,366,1283,0
-277,575,1261,0
-100,281,1011,0
-1,100,745,0
-12,88,621,0
-58,145,609,0
-68,173,716,0
29,306,909,0
209,233,960,0
236,197,1049,0
325,297,1210,0
232,-28,1051,0
337,356,1118,0
233,490,1204,0
281,460,1082,0
233,314,931,0
102,199,777,0
-46,158,748,0
-108,191,844,0
-97,83,869,0
-144,71,865,0
-253,180,945,0
-290,200,1004,0
-197,312,1115,0
-321,463,1250,0
-80,634,1284,0
-121,433,1132,0
-147,651,1123,0
-31,457,987,0
108,289,824,0
133,268,774,0
124,203,732,0
151,250,761,0
257,258,815,0
410,155,895,0
466,32,996,0
523,59,1095,0
429,-27,1092,0
433,412,1143,0
369,599,1171,0
418,288,1003,0
357,233,844,0
151,103,719,0
-94,113,772,0
-116,88,849,0
-76,-71,889,0
-60,-59,952,0
-82,-29,1013,0
-88,-44,1053,0
-87,-12,1097,0
-228,8,1105,0
-192,163,1198,0
-233,52,1130,0
-308,193,1145,0
-252,256,1162,0
-87,91,965,0
-18,-18,808,0
11,-37,762,0
56,-102,763,0
88,-142,841,0
108,-68,983,0
90,72,1101,0
145,137,1147,0
42,-16,1084,0
63,253,1201,0
87,320,1239,0
190,190,1164,0
232,210,1076,0
134,-42,840,0
1,-66,762,0
-91,-3,767,0
-137,-54,782,0
-156,-15,870,0
-175,38,960,0
-197,28,1073,0
-191,103,1194,0
-202,35,1169,0
-288,22,1199,0
-314,15,1137,0
-362,166,1133,0
-243,313,1182,0
-14,226,1023,0
48,117,857,0
76,66,756,0
66,11,721,0
44,-36,761,0
51,8,887,0
92,36,993,0
177,123,1173,0
333,90,1193,0
211,-5,1089,0
160,311,1123,0
32,382,1157,0
99,448,1194,0
194,242,1105,0
206,72,911,0
92,-31,756,0
-16,34,721,0
-60,5,737,0
-49,55,847,0
13,173,1000,0
23,155,1045,0
-5,152,1152,0
-27,110,1208,0
-192,56,1176,0
-262,185,1228,0
-224,116,1162,0
-212,174,1094,0
-141,228,1060,0
-12,130,904,0
32,93,807,0
43,103,779,0
47,62,785,0
85,69,851,0
183,132,949,0
251,137,1040,0
328,130,1119,0
327,84,1115,0
257,157,1115,0
165,475,1154,0
170,474,1053,0
145,346,918,0
54,263,809,0
-28,35,697,0
-71,-14,779,0
-41,-30,838,0
-10,-42,909,0
33,46,1027,0
18,55,1067,0
-46,106,1115,0
-89,99,1155,0
-189,149,1195,0
-126,363,1326,0
-211,167,1199,0
-239,326,1215,0
-131,221,1081,0
-36,111,914,0
0,116,829,0
31,88,765,0
33,38,737,0
31,53,795,0
59,73,856,0
29,136,952,0
97,264,1137,0
205,134,1175,0
288,272,1238,0
215,448,1270,0
237,337,1132,0
279,254,1052,0
230,59,868,0
59,7,781,0
-46,-22,735,0
-48,-63,714,0
-18,-1,820,0
-50,61,931,0
-127,61,1004,0
-218,81,1149,0
-325,36,1218,0
-345,104,1227,0
-487,196,1215,0
-430,268,1138,0
-236,336,1095,0
8,295,951,0
98,178,793,0
122,142,762,0
124,87,770,0
166,73,865,0
212,95,966,0
257,141,1065,0
343,183,1165,0
361,93,1087,0
221,182,1125,0
195,257,1096,0
219,366,1150,0
253,365,1117,0
204,206,913,0
34,154,784,0
-80,131,694,0
-143,19,657,0
-221,-17,766,0
-247,7,891,0
-286,11,1028,0
-285,28,1185,0
-200,60,1257,0
-287,31,1228,0
-245,245,1240,0
-294,102,1038,0
-334,232,1004,0
-249,385,1004,0
-96,259,859,0
-31,213,799,0
51,227,790,0
57,76,761,0
64,70,849,0
92,86,937,0
89,105,988,0
115,210,1167,0
229,201,1218,0
160,275,1204,0
214,589,1350,0
213,434,1196,0
257,321,1034,0
240,315,927,0
166,110,710,0
41,50,652,0
-32,65,665,0
-69,27,724,0
-75,65,858,0
-89,133,1015,0
-85,80,1117,0
-89,76,1191,0
-239,75,1206,0
-156,218,1247,0
-289,87,1136,0
-316,272,1126,0
-221,259,1072,0
-65,186,895,0
-8,104,786,0
35,120,754,0
60,27,735,0
134,16,815,0
177,128,935,0
220,233,1043,0
241,321,1174,0
266,224,1160,0
257,352,1201,0
231,468,1118,0
146,473,1035,0
151,405,959,0
159,325,826,0
51,216,692,0
-88,163,745,0
-100,89,871,0
-36,21,974,0
-5,33,1029,0
-50,83,1064,0
-99,117,1091,0
-217,160,1083,0
-274,426,1246,0
-214,568,1247,0
-280,492,1111,0
-218,502,1098,0
-31,307,924,0
65,144,774,0
73,149,756,0
77,112,720,0
53,43,750,0
57,107,858,0
91,165,960,0
106,221,1084,0
209,269,1173,0
234,181,1107,0
142,220,1146,0
183,342,1115,0
154,463,1127,0
195,332,1031,0
164,200,861,0
15,128,727,0
-150,133,703,0
-253,108,717,0
-260,147,846,0
-190,196,1007,0
-140,146,1080,0
-120,149,1166,0
-129,129,1185,0
-269,92,1177,0
-212,256,1170,0
-312,242,1065,0
-333,441,1083,0
-206,372,1004,0
-71,187,847,0
-9,129,792,0
22,117,741,0
43,95,757,0
99,92,807,0
213,155,885,0
227,206,964,0
267,320,1096,0
349,207,1100,0
312,263,1132,0
277,464,1189,0
241,569,1188,0
242,474,1070,0
179,339,880,0
52,253,768,0
-68,193,732,0
-162,126,745,0
-175,93,842,0
-184,155,965,0
-197,128,1039,0
-179,134,1118,0
-120,178,1175,0
-248,131,1138,0
-180,318,1183,0
-218,205,1097,0
-194,402,1110,0
-82,358,1073,0
37,218,945,0
82,119,869,0
84,50,792,0
73,7,781,0
79,-22,830,0
123,-1,907,0
146,30,1004,0
208,91,1118,0
260,3,1114,0
319,136,1146,0
233,166,1158,0
252,190,1093,0
368,189,1089,0
361,30,901,0
183,-14,838,0
59,32,845,0
-9,-33,841,0
-33,-46,903,0
-19,-9,975,0
-32,-27,1017,0
-24,-63,1060,0
-42,-84,1081,0
-143,-174,1012,0
-261,-122,1038,0
-313,13,1188,0
-289,127,1244,0
-133,203,1287,0
50,177,1110,0
111,-36,823,0
112,-33,752,0
144,-13,738,0
201,-111,754,0
250,-68,842,0
200,13,900,0
209,72,1031,0
288,-18,1100,0
324,28,1111,0
336,351,1392,0
398,308,1324,0
486,206,1113,0
451,137,856,0
243,82,655,0
22,77,662,0
-118,73,668,0
-206,63,786,0
-171,89,957,0
-42,110,1111,0
20,26,1165,0
49,82,1209,0
-103,176,1281,0
-109,211,1218,0
-208,218,1107,0
-262,383,1096,0
-151,324,981,0
-2,214,827,0
112,121,739,0
143,12,658,0
158,-62,651,0
148,25,834,0
152,153,1072,0
124,316,1118,0
165,408,1190,0
258,218,1088,0
178,227,1078,0
141,534,1097,0
116,557,1075,0
226,495,993,0
212,216,865,0
128,125,787,0
29,76,744,0
-61,29,747,0
-119,4,844,0
-134,56,947,0
-160,141,1073,0
-173,204,1137,0
-147,190,1177,0
-210,126,1167,0
-183,248,1196,0
-230,140,1080,0
-330,268,1025,0
-345,395,1049,0
-143,431,977,0
-19,204,817,0
24,184,743,0
25,183,720,0
17,167,753,0
37,241,876,0
112,291,1012,0
201,287,1128,0
353,221,1144,0
257,97,1088,0
257,360,1108,0
187,352,1087,0
249,397,1099,0
276,228,976,0
162,86,846,0
21,61,772,0
-78,69,745,0
-120,62,789,0
-110,71,888,0
-80,44,972,0
-108,101,1082,0
-126,98,1172,0
-142,41,1150,0
-278,35,1158,0
-259,122,1192,0
-256,234,1215,0
-198,292,1199,0
-60,277,1118,0
39,115,923,0
56,58,819,0
70,51,794,0
121,-25,776,0
194,-11,819,0
228,30,850,0
188,135,970,0
236,153,1066,0
227,7,1098,0
302,185,1191,0
250,351,1303,0
287,286,1233,0
235,211,1079,0
107,81,873,0
-30,4,768,0
-134,-26,748,0
-159,-82,783,0
-166,-79,860,0
-154,-48,941,0
-156,-53,1034,0
-116,-8,1137,0
-163,-12,1184,0
-144,132,1258,0
-274,121,1182,0
-288,320,1177,0
-161,282,1124,0
4,247,958,0
29,149,817,0
38,159,777,0
29,121,789,0
76,86,876,0
172,97,996,0
244,45,1039,0
278,72,1111,0
341,72,1094,0
164,-3,1066,0
285,271,1202,0
302,300,1163,0
287,344,1088,0
224,221,925,0
132,153,788,0
-30,83,740,0
-150,65,758,0
-185,25,811,0
-144,43,925,0
-36,66,1043,0
-5,-47,1040,0
-82,0,1138,0
-170,-18,1159,0
-314,83,1233,0
-242,291,1245,0
-334,147,1081,0
-334,324,1123,0
-175,204,1034,0
-68,52,887,0
-45,33,842,0
-14,18,798,0
-1,-61,768,0
16,-34,827,0
51,21,888,0
60,56,971,0
170,159,1104,0
214,17,1114,0
311,250,1252,0
245,266,1221,0
206,301,1176,0
243,222,1111,0
205,172,979,0
61,62,844,0
-83,103,818,0
-110,83,793,0
-89,5,804,0
-61,36,884,0
-96,58,957,0
-126,52,1050,0
-111,61,1130,0
-35,38,1123,0
-293,-30,1123,0
-261,136,1198,0
-280,43,1120,0
-291,284,1156,0
-148,252,1078,0
-27,113,897,0
11,99,825,0
28,122,821,0
86,66,843,0
176,85,912,0
216,112,981,0
248,167,1083,0
276,62,1105,0
308,65,1198,0
323,181,1168,0
227,239,1132,0
200,133,1014,0
177,139,908,0
88,13,779,0
-31,-6,741,0
-90,1,732,0
-133,-35,814,0
-108,8,941,0
-90,-6,1019,0
-121,-28,1100,0
-158,-6,1176,0
-319,-21,1221,0
-185,142,1291,0
-296,11,1194,0
-312,240,1203,0
-176,194,1114,0
-35,73,916,0
6,25,787,0
21,33,721,0
47,6,729,0
81,-33,809,0
118,17,912,0
117,83,1036,0
221,183,1175,0
258,35,1146,0
253,181,1213,0
167,251,1187,0
132,388,1218,0
202,257,1120,0
183,113,927,0
59,-34,738,0
-98,-11,682,0
-184,13,708,0
-178,-28,779,0
-166,23,919,0
-165,80,1076,0
-177,23,1185,0
-225,16,1264,0
-229,80,1326,0
-250,31,1226,0
-302,162,1172,0
-254,169,1102,0
-152,145,968,0
-92,43,830,0
-58,32,751,0
-42,7,719,0
-24,-22,791,0
54,12,919,0
102,52,994,0
91,143,1099,0
163,264,1161,0
86,189,1101,0
90,261,1115,0
86,310,1177,0
199,318,1152,0
214,125,955,0
175,-6,738,0
68,-34,677,0
-84,64,739,0
-213,58,843,0
-255,93,993,0
-255,190,1166,0
-243,140,1232,0
-195,155,1242,0
-270,101,1187,0
-156,293,1202,0
-248,218,1119,0
-282,429,1114,0
-207,408,1085,0
-65,298,942,0
-27,115,800,0
-3,95,773,0
-12,1,751,0
-42,-48,795,0
3,35,915,0
60,72,977,0
64,126,1078,0
168,230,1149,0
84,164,1116,0
109,382,1175,0
82,469,1243,0
247,445,1196,0
249,221,971,0
113,65,715,0
-34,16,593,0
-106,40,607,0
-160,17,720,0
-145,68,941,0
-98,91,1146,0
-141,68,1249,0
-200,150,1317,0
-264,76,1228,0
-293,241,1208,0
-389,272,1154,0
-418,436,1162,0
-282,441,1112,0
-75,281,910,0
-2,70,696,0
-10,51,642,0
-31,73,703,0
-21,72,815,0
45,109,976,0
133,187,1049,0
132,185,1122,0
251,260,1149,0
207,87,1045,0
211,264,1088,0
235,360,1104,0
271,402,1099,0
265,270,1014,0
174,150,854,0
12,38,721,0
-87,54,720,0
-130,68,800,0
-135,150,955,0
-92,159,1097,0
-29,144,1157,0
-25,109,1177,0
3,138,1188,0
-156,32,1070,0
-265,224,1100,0
-304,279,1092,0
-307,420,1080,0
-200,392,1069,0
-20,237,893,0
67,108,760,0
89,86,722,0
115,69,755,0
137,126,871,0
153,122,951,0
185,158,1058,0
344,218,1163,0
360,199,1143,0
309,413,1249,0
375,393,1183,0
350,252,1023,0
212,207,836,0
69,186,745,0
-45,113,712,0
-81,78,730,0
-119,66,825,0
-119,109,947,0
-106,114,1025,0
-91,123,1123,0
-52,98,1199,0
-240,75,1244,0
-40,287,1316,0
-103,-22,1117,0
-134,202,1111,0
-84,213,1083,0
43,104,907,0
62,74,830,0
80,79,773,0
75,42,750,0
88,-7,813,0
157,51,928,0
201,34,984,0
234,69,1065,0
293,68,1082,0
138,3,1095,0
217,309,1284,0
260,257,1265,0
286,154,1131,0
136,158,994,0
9,0,822,0
-92,-39,743,0
-141,-3,764,0
-139,-36,822,0
-115,-9,898,0
-122,8,994,0
-151,-25,1085,0
-166,-31,1184,0
-218,-94,1155,0
-227,20,1200,0
-306,92,1160,0
-309,180,1154,0
-177,222,1160,0
-33,176,1013,0
6,47,838,0
4,39,754,0
-30,25,716,0
-19,23,788,0
43,61,906,0
92,114,1021,0
158,199,1183,0
327,29,1131,0
148,-46,1121,0
200,242,1200,0
154,209,1180,0
228,274,1170,0
222,168,1052,0
106,34,846,0
-37,1,752,0
-87,22,748,0
-97,-55,769,0
-128,-16,876,0
-160,28,980,0
-183,-6,1080,0
-153,26,1195,0
-258,16,1225,0
-165,211,1289,0
-194,56,1143,0
-216,222,1092,0
-184,193,1026,0
-63,127,879,0
-32,61,790,0
-16,95,795,0
9,38,818,0
49,34,896,0
96,90,999,0
110,102,1047,0
144,172,1127,0
266,95,1073,0
69,49,1015,0
122,288,1099,0
153,435,1212,0
226,316,1155,0
177,269,1057,0
89,64,849,0
-25,-3,762,0
-117,8,767,0
-144,-43,796,0
-140,21,901,0
-146,69,1005,0
-145,66,1092,0
-107,96,1163,0
-262,166,1280,0
-73,265,1260,0
-183,103,1099,0
-250,291,1059,0
-206,255,998,0
-75,157,856,0
-30,138,783,0
-36,169,764,0
-41,154,794,0
6,134,875,0
86,207,987,0
126,209,1067,0
231,170,1110,0
106,60,1123,0
262,324,1208,0
113,348,1160,0
135,437,1151,0
171,360,1061,0
128,221,886,0
-6,85,757,0
-109,109,748,0
-134,65,764,0
-128,60,844,0
-134,79,912,0
-178,110,986,0
-193,141,1072,0
-248,100,1098,0
-205,414,1396,0
-32,129,1161,0
-208,267,1102,0
-288,309,1069,0
-156,254,964,0
-56,193,907,0
-22,171,861,0
-28,126,795,0
-43,112,817,0
-4,140,879,0
74,125,907,0
61,155,959,0
107,189,1031,0
199,22,967,0
-1,166,1110,0
154,429,1256,0
176,354,1232,0
245,411,1224,0
196,288,1039,0
99,98,825,0
-71,130,786,0
-177,115,753,0
-236,67,787,0
-225,102,844,0
-236,85,846,0
-318,90,891,0
-347,131,1019,0
-491,203,1229,0
-274,345,1389,0
-152,238,1265,0
-181,293,1074,0
-131,314,1080,0
94,208,994,0
179,9,902,0
180,-56,854,0
154,-122,787,0
122,-124,781,0
107,-30,837,0
102,65,919,0
84,121,1032,0
53,155,1314,0
338,121,1403,0
328,92,1232,0
146,-116,914,0
23,-43,798,0
35,91,771,0
109,90,828,0
147,115,879,0
44,94,876,0
-80,56,914,0
-97,59,963,0
-72,56,1013,0
-40,121,1056,0
-26,139,1073,0
-121,87,1016,0
-251,307,1215,0
-140,499,1369,0
-158,229,1193,0
-376,315,1110,0
-323,234,998,0
-175,91,807,0
-131,109,780,0
-80,191,812,0
-54,125,823,0
-17,137,881,0
9,131,931,0
-25,124,991,0
16,149,1108,0
116,58,1102,0
54,127,1178,0
202,444,1366,0
268,139,1063,0
95,130,910,0
46,302,937,0
106,174,842,0
98,100,813,0
-11,142,859,0
-86,69,868,0
-86,35,904,0
-64,89,969,0
-25,111,1031,0
35,69,1036,0
39,40,1044,0
19,13,1065,0
30,58,1134,0
-37,50,1120,0
-143,218,1223,0
-106,319,1185,0
-151,152,960,0
-260,260,910,0
-210,381,925,0
-46,302,893,0
34,228,890,0
49,169,883,0
39,61,867,0
53,69,941,0
90,46,986,0
124,42,1013,0
99,65,1034,0
124,111,1081,0
165,91,1055,0
99,170,1146,0
264,365,1242,0
254,188,1016,0
118,324,988,0
151,358,974,0
224,243,887,0
176,228,841,0
73,134,779,0
8,110,789,0
-22,90,845,0
10,111,930,0
85,132,1006,0
90,109,1006,0
-22,122,1043,0
-121,126,1059,0
-299,165,1090,0
-265,500,1325,0
-136,407,1228,0
-187,322,1004,0
-271,368,941,0
-238,347,885,0
-119,243,840,0
-44,220,859,0
-8,163,849,0
-25,124,841,0
-23,157,885,0
21,168,921,0
42,203,954,0
28,295,1049,0
167,345,1130,0
180,187,1079,0
244,489,1206,0
209,436,1089,0
175,477,1068,0
243,398,1007,0
222,271,868,0
103,122,747,0
-1,100,718,0
-59,104,748,0
-77,51,801,0
-41,159,948,0
17,174,1032,0
-23,136,1047,0
-84,234,1140,0
-100,212,1113,0
-187,363,1230,0
-75,456,1205,0
-147,288,983,0
-229,442,949,0
-176,460,930,0
-50,349,839,0
-18,254,804,0
-23,228,778,0
-31,179,799,0
-2,162,866,0
61,178,948,0
101,145,964,0
68,227,1049,0
163,311,1132,0
154,173,1146,0
291,440,1358,0
297,414,1068,0
152,298,877,0
157,301,818,0
164,243,776,0
76,234,777,0
23,194,769,0
-8,173,810,0
-8,204,889,0
-6,231,976,0
-19,220,1015,0
-75,225,1071,0
-93,263,1132,0
-157,243,1109,0
-120,517,1296,0
-12,407,1119,0
-110,388,1002,0
-152,479,990,0
-67,355,895,0
1,235,827,0
11,190,797,0
8,167,767,0
-5,121,779,0
46,171,860,0
119,224,943,0
126,218,983,0
167,355,1120,0
250,207,1047,0
192,294,1136,0
263,385,1144,0
255,392,1086,0
310,484,1096,0
329,344,932,0
259,197,773,0
145,121,655,0
34,118,623,0
-70,155,698,0
-87,234,864,0
-20,292,1014,0
0,221,1064,0
-67,313,1183,0
-85,317,1181,0
-221,333,1197,0
-106,545,1289,0
-104,313,1032,0
-188,412,978,0
-177,464,953,0
-80,367,853,0
-59,259,799,0
-38,193,768,0
-32,128,753,0
-20,93,798,0
47,132,876,0
126,171,937,0
117,180,1009,0
197,314,1161,0
232,102,1059,0
221,289,1198,0
260,310,1156,0
155,383,1058,0
192,460,1060,0
228,341,925,0
172,159,774,0
48,89,708,0
-21,67,700,0
-78,-27,723,0
-43,100,904,0
27,210,1065,0
24,125,1132,0
0,268,1263,0
-37,202,1220,0
-114,307,1283,0
-80,301,1175,0
-180,238,1023,0
-177,312,1008,0
-74,285,926,0
-47,178,810,0
-50,139,745,0
-12,132,723,0
26,65,733,0
76,104,829,0
128,159,922,0
145,272,1071,0
281,333,1214,0
272,137,1102,0
253,401,1224,0
190,386,1089,0
109,452,1055,0
172,470,1045,0
200,317,878,0
162,178,735,0
70,115,711,0
25,101,706,0
-13,67,767,0
-10,160,898,0
-24,237,998,0
-88,295,1147,0
-26,411,1300,0
-45,311,1276,0
69,413,1279,0
-74,218,1058,0
-202,399,1010,0
-242,428,984,0
-140,349,869,0
-75,188,762,0
-28,151,726,0
-11,97,744,0
12,68,822,0
93,142,950,0
172,196,997,0
186,250,1112,0
293,283,1154,0
180,273,1090,0
185,503,1089,0
130,463,1021,0
208,481,1014,0
241,320,931,0
202,168,798,0
126,81,723,0
38,162,700,0
-78,207,713,0
-155,242,805,0
-167,332,959,0
-205,357,1094,0
-142,477,1246,0
-113,403,1200,0
-195,477,1240,0
-143,481,1118,0
-236,371,931,0
-231,530,963,0
-80,486,911,0
34,291,782,0
55,207,757,0
78,209,757,0
64,118,745,0
80,168,843,0
155,244,924,0
143,204,967,0
193,349,1102,0
175,299,1105,0
255,573,1222,0
253,575,1076,0
158,552,1005,0
138,455,894,0
70,309,739,0
-8,183,676,0
-83,130,717,0
-84,154,781,0
-38,155,869,0
21,198,993,0
32,236,1048,0
-34,228,1105,0
-112,270,1125,0
-276,338,1189,0
-116,601,1240,0
-199,348,1036,0
-248,589,1052,0
-139,542,984,0
-43,327,792,0
-47,234,734,0
-35,221,749,0
-19,146,785,0
1,106,840,0
64,243,957,0
136,297,1048,0
290,253,1094,0
362,133,973,0
182,212,1058,0
267,379,1112,0
239,365,1106,0
294,433,1107,0
226,300,961,0
105,125,781,0
-16,115,727,0
-102,97,724,0
-138,92,787,0
-109,172,910,0
-56,225,1002,0
-59,211,1082,0
-52,240,1155,0
-164,211,1168,0
-82,403,1265,0
-68,238,1102,0
-132,352,1047,0
-141,410,1049,0
-30,296,921,0
-20,151,806,0
-51,132,759,0
-130,109,752,0
-200,101,811,0
-128,202,941,0
-7,261,1052,0
80,267,1143,0
196,272,1168,0
126,191,1191,0
264,347,1197,0
161,274,1049,0
141,307,1032,0
186,229,926,0
176,123,807,0
69,45,722,0
-29,89,732,0
-54,98,766,0
-88,92,908,0
-70,173,1014,0
-79,113,1023,0
-115,77,1094,0
-137,116,1138,0
-267,176,1210,0
-126,316,1223,0
-240,141,1020,0
-310,322,1030,0
-242,350,1001,0
-115,282,888,0
-59,234,820,0
0,184,789,0
32,93,805,0
103,83,904,0
176,50,977,0
175,98,1031,0
233,228,1167,0
273,106,1140,0
333,341,1261,0
228,369,1089,0
117,493,1084,0
195,386,984,0
183,312,870,0
88,182,757,0
-40,160,724,0
-136,149,754,0
-177,114,829,0
-144,181,965,0
-73,195,1039,0
-106,174,1098,0
-113,200,1161,0
-226,185,1161,0
-126,406,1285,0
-160,209,1082,0
-234,371,1025,0
-196,407,1010,0
-11,286,859,0
18,130,740,0
8,176,763,0
17,111,776,0
41,72,863,0
111,152,991,0
187,117,996,0
133,148,1039,0
187,216,1113,0
139,60,1027,0
204,413,1214,0
261,452,1168,0
237,429,1090,0
214,403,1001,0
163,230,845,0
111,101,718,0
25,80,687,0
-10,65,635,0
-36,121,765,0
-9,368,1000,0
-5,272,1028,0
-71,288,1180,0
-126,321,1252,0
-270,276,1225,0
-203,466,1327,0
-160,272,1154,0
-194,306,1073,0
-194,353,998,0
-114,294,874,0
-63,185,774,0
-20,156,744,0
-17,81,707,0
-28,40,755,0
20,66,860,0
119,102,963,0
141,133,1057,0
125,206,1172,0
152,247,1326,0
292,297,1172,0
68,335,1013,0
12,360,991,0
84,282,898,0
121,277,867,0
43,239,820,0
-35,200,781,0
-73,174,811,0
-60,141,902,0
21,169,1045,0
-96,202,1105,0
-154,289,1137,0
-293,248,1071,0
-303,468,1214,0
-242,430,1062,0
-327,434,974,0
-324,538,968,0
-180,396,855,0
-88,215,785,0
-60,161,801,0
-39,124,801,0
-45,87,865,0
21,165,962,0
86,166,992,0
84,186,1052,0
145,228,1097,0
115,103,1006,0
83,287,1127,0
182,265,1107,0
141,327,1069,0
134,375,1076,0
145,282,977,0
117,159,849,0
27,88,753,0
-44,104,709,0
-75,107,735,0
-73,141,832,0
-70,241,968,0
-128,233,1074,0
-142,292,1233,0
-127,283,1239,0
-159,364,1296,0
-50,381,1224,0
-172,274,985,0
-285,466,972,0
-250,526,927,0
-150,376,764,0
-138,267,717,0
-109,247,741,0
-67,116,736,0
-12,59,807,0
51,197,948,0
130,247,984,0
127,342,1059,0
187,393,1039,0
44,332,1022,0
209,625,1169,0
236,424,1070,0
262,464,1108,0
265,367,984,0
201,187,804,0
85,81,657,0
-54,134,636,0
-117,115,655,0
-96,156,793,0
-99,542,1091,0
-196,486,1131,0
-204,555,1204,0
-200,546,1156,0
-183,672,1165,0
-133,641,997,0
-271,568,883,0
-211,694,884,0
-86,523,781,0
-10,329,687,0
12,273,657,0
14,182,647,0
-25,208,703,0
-3,436,853,0
49,484,932,0
119,528,1033,0
289,527,1114,0
213,325,1089,0
312,641,1190,0
209,576,1067,0
225,596,1027,0
211,485,895,0
155,326,757,0
61,224,658,0
-50,190,647,0
-124,192,696,0
-148,214,792,0
-121,302,904,0
-159,309,1000,0
-164,323,1094,0
-300,293,1152,0
-136,588,1317,0
-147,272,1092,0
-259,329,1037,0
-266,414,998,0
-160,278,846,0
-108,158,721,0
-76,190,715,0
-52,168,727,0
-19,181,784,0
32,249,900,0
85,281,968,0
106,320,1085,0
249,291,1140,0
129,188,1148,0
273,521,1171,0
73,383,1089,0
167,581,1125,0
210,435,1008,0
163,169,822,0
9,119,723,0
-111,189,715,0
-175,128,707,0
-162,109,765,0
-165,220,875,0
-225,293,1003,0
-187,394,1153,0
-290,268,1163,0
-186,536,1313,0
-207,326,1131,0
-255,445,1068,0
-208,513,1052,0
-80,339,887,0
-59,168,739,0
-68,145,687,0
-87,169,694,0
-79,171,766,0
-6,229,897,0
70,283,985,0
71,343,1107,0
195,395,1185,0
132,93,1033,0
136,408,1184,0
123,450,1128,0
168,505,1154,0
207,368,1022,0
131,205,843,0
0,96,702,0
-127,153,677,0
-205,164,700,0
-223,204,791,0
-178,297,946,0
-161,267,999,0
-186,250,1087,0
-189,295,1158,0
-248,325,1199,0
-198,351,1140,0
-323,315,1046,0
-334,522,1074,0
-179,452,1014,0
-9,285,883,0
25,190,787,0
2,125,715,0
-25,149,752,0
3,148,823,0
62,160,875,0
63,258,1004,0
157,385,1156,0
201,123,1101,0
303,441,1256,0
199,327,1101,0
99,417,1064,0
136,376,993,0
126,305,885,0
42,118,738,0
-42,118,679,0
-122,196,709,0
-142,207,803,0
-133,223,940,0
-109,170,1056,0
-140,116,1171,0
-163,173,1214,0
-365,199,1263,0
0,573,1334,0
-132,40,965,0
-289,409,960,0
-271,484,953,0
-124,287,818,0
-33,202,801,0
-19,190,804,0
-31,127,785,0
-13,110,828,0
15,141,899,0
38,209,979,0
110,316,1131,0
238,170,1079,0
99,252,1200,0
279,415,1199,0
166,286,1098,0
166,420,1094,0
166,277,961,0
101,201,832,0
-2,122,744,0
-89,151,732,0
-142,144,764,0
-134,138,861,0
-109,187,950,0
-143,160,1003,0
-166,227,1115,0
-109,247,1154,0
-249,204,1171,0
-92,421,1232,0
-164,132,1011,0
-258,343,1008,0
-249,421,1028,0
-87,289,907,0
-38,177,824,0
-18,166,776,0
-22,160,777,0
-3,138,816,0
47,191,905,0
54,231,998,0
89,276,1125,0
207,203,1113,0
48,97,1076,0
156,440,1260,0
224,325,1167,0
223,339,1115,0
218,328,1000,0
197,192,822,0
119,96,681,0
8,129,661,0
-71,160,679,0
-101,173,771,0
-114,257,927,0
-103,327,1069,0
-120,255,1151,0
-213,196,1172,0
-288,459,1381,0
-92,410,1231,0
-221,282,1065,0
-307,455,1024,0
-287,393,954,0
-163,252,864,0
-61,202,838,0
-13,124,765,0
-8,61,747,0
23,101,792,0
66,96,815,0
23,138,867,0
63,332,1056,0
165,214,1110,0
227,329,1257,0
188,471,1247,0
122,476,1237,0
195,361,1081,0
141,224,894,0
23,107,707,0
-137,183,691,0
-239,207,703,0
-229,185,776,0
-174,185,892,0
-205,158,972,0
-252,224,1118,0
-254,241,1193,0
-310,269,1260,0
-260,372,1213,0
-358,375,1164,0
-326,481,1107,0
-182,389,968,0
-87,230,779,0
-28,207,683,0
-33,210,665,0
-25,194,751,0
34,169,897,0
155,290,1068,0
228,273,1154,0
332,126,1157,0
261,-1,1116,0
324,171,1128,0
254,251,1130,0
351,375,1126,0
432,116,966,0
354,72,825,0
80,82,826,0
-128,123,873,0
-178,67,874,0
-117,21,896,0
-57,-76,895,0
-36,-138,911,0
4,-162,958,0
-80,-172,1018,0
-193,-100,1126,0
-294,111,1269,0
-319,234,1313,0
-257,370,1286,0
-44,420,1187,0
136,232,937,0
214,88,772,0
238,33,722,0
293,-53,752,0
355,-4,825,0
385,5,913,0
455,-56,936,0
361,-13,1056,0
431,112,1123,0
370,352,1233,0
362,342,1216,0
383,293,1143,0
296,154,958,0
92,83,846,0
-60,149,825,0
-118,92,799,0
-122,22,827,0
-123,82,897,0
-151,97,984,0
-136,67,1070,0
-117,37,1134,0
-160,37,1233,0
-129,132,1216,0
-200,160,1225,0
-202,308,1198,0
-75,295,1105,0
61,182,928,0
132,84,796,0
140,80,723,0
125,88,720,0
132,29,804,0
226,98,927,0
290,103,1018,0
358,161,1058,0
313,44,1031,0
278,223,1137,0
324,298,1233,0
419,312,1261,0
489,200,1123,0
370,76,856,0
104,29,719,0
-152,122,727,0
-268,84,775,0
-249,78,887,0
-144,158,1030,0
-90,99,1082,0
-95,45,1114,0
-100,9,1134,0
-199,-39,1176,0
-159,84,1199,0
-297,137,1210,0
-327,328,1239,0
-76,329,1174,0
94,128,954,0
108,10,776,0
87,4,732,0
89,-17,772,0
134,-103,828,0
199,-59,888,0
216,-2,977,0
274,39,1046,0
308,-71,1011,0
184,-17,1072,0
320,279,1176,0
350,183,1118,0
364,178,988,0
266,188,849,0
112,146,708,0
-59,186,694,0
-147,281,772,0
-178,281,858,0
-159,357,974,0
-128,392,1057,0
-128,278,1134,0
-166,273,1211,0
-344,277,1279,0
-200,598,1336,0
-251,325,1193,0
-269,578,1199,0
-112,550,1168,0
68,310,931,0
103,159,742,0
99,104,635,0
38,81,587,0
-8,131,687,0
10,238,832,0
86,298,949,0
213,337,1120,0
298,30,1059,0
243,321,1211,0
227,366,1229,0
207,255,1162,0
184,157,991,0
97,183,907,0
47,126,817,0
33,117,812,0
13,132,825,0
12,60,825,0
28,76,911,0
5,114,974,0
-53,102,1035,0
-159,99,1127,0
-355,88,1188,0
-272,79,1152,0
-265,229,1211,0
-154,390,1224,0
-13,248,1126,0
83,199,993,0
91,123,859,0
72,26,747,0
23,-3,716,0
38,-69,780,0
119,-157,855,0
183,-161,910,0
127,-44,1028,0
147,64,1113,0
27,-15,1126,0
19,265,1213,0
67,470,1327,0
150,320,1222,0
115,234,1063,0
-4,37,840,0
-77,-25,715,0
-114,-24,686,0
-123,-66,729,0
-77,-34,879,0
-36,-18,1041,0
-59,-31,1113,0
-100,-12,1190,0
-152,30,1219,0
-174,81,1251,0
-217,123,1265,0
-312,164,1267,0
-226,274,1232,0
-67,255,1056,0
41,127,801,0
83,125,665,0
74,146,610,0
99,143,645,0
182,128,770,0
243,38,904,0
384,154,1155,0
526,8,1210,0
442,-3,1251,0
447,206,1305,0
340,313,1218,0
301,277,1104,0
241,223,966,0
169,125,805,0
-2,107,742,0
-123,125,756,0
-196,134,774,0
-146,86,841,0
-60,32,909,0
-89,104,995,0
-151,57,1099,0
-169,83,1180,0
-248,169,1237,0
-138,293,1262,0
-276,172,1104,0
-373,288,1081,0
-283,323,1056,0
-121,239,910,0
-7,88,753,0
30,57,687,0
22,34,669,0
31,32,728,0
51,52,822,0
88,195,1028,0
277,361,1223,0
292,149,1195,0
398,519,1287,0
214,508,1170,0
172,444,1123,0
221,364,1007,0
172,204,794,0
40,177,638,0
-81,258,637,0
-195,247,673,0
-269,234,733,0
-303,314,854,0
-395,362,935,0
-456,408,1098,0
-475,450,1203,0
-405,571,1290,0
-363,475,1182,0
-340,536,1169,0
-153,477,1060,0
1,281,874,0
87,169,747,0
119,129,686,0
97,67,620,0
31,98,652,0
-24,181,785,0
-40,327,950,0
82,538,1190,0
182,312,1158,0
180,466,1308,0
199,530,1244,0
156,482,1156,0
168,302,1010,0
147,253,861,0
54,153,670,0
-120,132,567,0
-263,186,623,0
-309,179,713,0
-234,235,840,0
-180,238,1039,0
-166,154,1201,0
-140,206,1334,0
-235,235,1383,0
-136,372,1324,0
-224,269,1141,0
-284,434,1086,0
-171,449,1039,0
-13,232,826,0
52,83,675,0
60,45,609,0
43,2,572,0
19,56,669,0
110,257,872,0
188,347,993,0
252,450,1153,0
298,422,1241,0
246,352,1330,0
244,461,1237,0
97,462,1149,0
171,460,1002,0
221,321,855,0
238,163,716,0
150,97,625,0
54,109,634,0
19,94,698,0
68,114,809,0
95,134,966,0
90,160,1134,0
113,138,1277,0
-18,113,1315,0
-22,369,1405,0
-34,298,1275,0
-140,226,1102,0
-193,278,990,0
-140,268,892,0
-40,122,761,0
-2,59,767,0
37,161,810,0
78,145,867,0
140,167,902,0
198,221,963,0
256,215,1013,0
335,227,1049,0
260,166,1049,0
295,297,1080,0
216,326,1078,0
260,413,1105,0
280,367,1072,0
155,123,925,0
38,80,849,0
-40,64,761,0
-86,-26,726,0
-104,-13,820,0
-139,39,903,0
-194,130,1009,0
-206,182,1139,0
-320,110,1205,0
-227,412,1397,0
-226,188,1221,0
-370,301,1107,0
-343,430,1086,0
-132,317,932,0
-10,193,791,0
37,129,723,0
79,63,709,0
25,33,762,0
27,61,880,0
98,107,988,0
116,164,1132,0
215,188,1196,0
91,145,1232,0
139,406,1247,0
55,276,1157,0
127,248,1051,0
77,168,939,0
-39,38,814,0
-163,21,783,0
-214,39,799,0
-215,-14,846,0
-192,0,1019,0
-199,-44,1075,0
-193,-55,1146,0
-160,-94,1136,0
-239,-114,1096,0
-342,36,1081,0
-388,250,1095,0
-270,413,1124,0
-71,321,1024,0
48,221,882,0
62,111,771,0
27,59,739,0
-23,112,851,0
51,125,1011,0
152,-14,1050,0
110,91,1188,0
176,69,1191,0
70,-36,1050,0
125,294,1115,0
26,291,1072,0
104,404,1076,0
42,239,918,0
-323,157,783,0
-454,106,704,0
-339,25,743,0
-119,-69,858,0
88,-82,1055,0
224,-140,1175,0
171,-121,1226,0
75,-65,1253,0
20,1,1210,0
-124,14,1163,0
-175,249,1145,0
-347,251,1050,0
-381,360,1036,0
-230,338,980,0
-54,139,812,0
-6,25,729,0
-3,4,717,0
-67,-38,775,0
-48,-21,923,0
48,167,1156,0
185,184,1267,0
312,62,1246,0
274,76,1126,0
203,188,1116,0
190,245,1051,0
166,295,1021,0
176,362,1010,0
58,193,874,0
-145,131,789,0
-228,106,744,0
-183,25,709,0
-113,17,783,0
-87,33,932,0
-128,51,1049,0
-172,58,1173,0
-155,112,1188,0
-236,154,1242,0
-252,264,1088,0
-466,361,1016,0
-336,568,1084,0
7,552,1070,0
259,382,896,0
289,103,689,0
214,67,753,0
125,53,844,0
84,12,926,0
65,77,1051,0
110,259,1215,0
293,344,1289,0
206,224,1222,0
255,533,1240,0
189,436,1119,0
250,397,1023,0
298,223,879,0
278,35,679,0
141,32,657,0
21,61,734,0
-22,-4,789,0
-43,27,883,0
-62,112,980,0
-150,74,1002,0
-240,92,1070,0
-363,74,1126,0
-347,224,1223,0
-376,156,1192,0
-396,271,1187,0
-253,313,1150,0
-65,193,945,0
7,84,769,0
19,95,724,0
24,78,747,0
28,27,837,0
44,61,945,0
77,213,1131,0
211,268,1249,0
283,59,1171,0
207,275,1241,0
170,255,1106,0
175,277,1036,0
248,230,1005,0
245,101,863,0
142,42,744,0
-33,120,714,0
-163,156,739,0
-248,155,808,0
-244,196,901,0
-367,163,975,0
-472,176,1117,0
-520,156,1247,0
-349,395,1397,0
-330,219,1224,0
-369,418,1158,0
-268,414,1048,0
-90,239,863,0
8,122,735,0
24,108,681,0
28,107,690,0
35,90,754,0
81,90,908,0
162,100,1086,0
300,63,1199,0
226,138,1284,0
272,282,1190,0
27,431,1151,0
31,476,1121,0
113,379,994,0
62,264,807,0
-91,104,666,0
-276,132,711,0
-327,131,793,0
-239,59,883,0
-175,57,971,0
-208,124,1052,0
-284,145,1123,0
-378,119,1104,0
-305,331,1196,0
-338,277,1134,0
-275,495,1173,0
-149,513,1155,0
-14,368,1018,0
8,174,840,0
6,170,760,0
-2,115,700,0
20,104,735,0
14,101,799,0
44,238,1004,0
257,237,1142,0
366,-48,1017,0
224,279,1260,0
269,186,1165,0
197,389,1250,0
252,329,1128,0
196,199,885,0
70,138,672,0
-107,146,570,0
-233,214,573,0
-326,245,713,0
-303,255,889,0
-225,297,1067,0
-156,277,1222,0
-93,251,1309,0
-197,319,1335,0
18,530,1285,0
-157,259,1091,0
-176,564,1126,0
-112,422,1023,0
-80,264,886,0
-47,197,784,0
-47,143,702,0
-78,120,701,0
-114,119,775,0
-50,221,954,0
46,123,1036,0
207,155,1167,0
389,7,1107,0
272,-31,1075,0
302,338,1015,0
187,211,990,0
336,404,980,0
321,186,861,0
161,59,726,0
-6,46,698,0
-168,107,741,0
-227,109,850,0
-185,116,1033,0
-36,100,1121,0
-10,147,1216,0
18,88,1217,0
-152,37,1201,0
-167,345,1339,0
-231,211,1233,0
-251,404,1227,0
-207,348,1134,0
-123,191,926,0
-33,103,765,0
28,73,656,0
26,38,623,0
1,32,681,0
5,45,816,0
65,73,996,0
109,260,1296,0
232,130,1274,0
32,203,1219,0
-42,541,1221,0
-82,517,1103,0
44,578,1054,0
54,268,872,0
-10,136,751,0
-144,52,708,0
-221,-24,706,0
-262,-42,792,0
-279,-19,905,0
-249,38,1009,0
-234,37,1081,0
-226,48,1097,0
-426,47,1085,0
-276,324,1212,0
-370,258,1176,0
-326,412,1230,0
-191,262,1110,0
-64,145,925,0
-3,122,774,0
12,103,712,0
9,67,729,0
5,91,815,0
5,170,927,0
48,354,1116,0
186,228,1082,0
26,169,1096,0
82,386,1166,0
30,439,1217,0
94,379,1176,0
68,295,1070,0
-14,80,877,0
-108,-3,793,0
-201,30,797,0
-284,-15,818,0
-329,27,897,0
-322,90,970,0
-284,52,1013,0
-205,75,1083,0
-316,105,1170,0
-131,169,1172,0
-256,93,1063,0
-259,129,1067,0
-180,100,996,0
-70,50,922,0
-21,25,858,0
-7,-26,779,0
-37,-11,796,0
-29,21,878,0
37,60,982,0
63,105,1036,0
76,146,1131,0
3,82,1123,0
64,304,1218,0
-14,430,1191,0
11,498,1234,0
105,314,1126,0
130,95,921,0
21,-13,763,0
-85,-19,695,0
-129,-20,709,0
-113,23,833,0
-91,73,946,0
-134,130,1052,0
-165,138,1144,0
-204,81,1122,0
-293,170,1178,0
-297,290,1153,0
-364,377,1093,0
-337,381,1035,0
-150,271,966,0
63,217,874,0
162,71,782,0
123,24,821,0
124,49,877,0
164,80,962,0
194,137,1036,0
183,218,1124,0
231,191,1146,0
168,160,1169,0
168,382,1145,0
128,604,1072,0
138,360,874,0
95,153,718,0
11,35,696,0
-45,-41,740,0
-75,-71,831,0
-90,18,961,0
-117,103,1049,0
-168,106,1083,0
-162,223,1161,0
-314,183,1152,0
-206,398,1261,0
-230,246,1193,0
-202,389,1159,0
-112,303,1089,0
40,142,903,0
73,71,793,0
91,72,766,0
98,7,773,0
86,-29,838,0
86,-1,933,0
81,37,991,0
134,169,1144,0
108,191,1169,0
130,458,1172,0
-31,591,1151,0
30,503,1105,0
142,271,973,0
171,83,817,0
117,-1,703,0
54,3,660,0
41,65,667,0
46,137,753,0
-20,149,842,0
-138,190,1005,0
-215,240,1210,0
-143,216,1288,0
-228,302,1412,0
-115,443,1258,0
-322,529,1200,0
-275,639,1176,0
-76,539,1092,0
62,364,938,0
100,243,802,0
84,222,729,0
68,208,729,0
90,138,738,0
97,168,822,0
135,265,968,0
245,266,1044,0
205,190,1099,0
287,376,1264,0
267,414,1216,0
202,531,1191,0
179,332,993,0
177,219,767,0
62,148,563,0
-110,145,541,0
-178,178,642,0
-129,99,688,0
-46,140,858,0
-108,357,1174,0
-190,358,1235,0
-199,307,1286,0
-195,296,1418,0
-164,522,1343,0
-162,398,982,0
-321,525,942,0
-328,674,967,0
-123,486,834,0
-7,204,720,0
7,219,746,0
25,106,724,0
30,71,767,0
68,195,899,0
121,227,971,0
122,218,1062,0
231,299,1130,0
145,218,1118,0
244,345,1160,0
183,277,1061,0
176,359,1089,0
233,188,978,0
209,133,845,0
88,40,726,0
-49,78,692,0
-136,143,753,0
-115,88,854,0
-33,52,982,0
30,90,1091,0
14,81,1162,0
4,77,1194,0
-110,101,1240,0
-10,320,1326,0
-72,120,1136,0
-202,290,1128,0
-173,328,1125,0
-24,209,995,0
9,107,881,0
22,105,813,0
12,72,754,0
17,46,769,0
52,46,833,0
114,113,897,0
91,120,992,0
212,223,1122,0
264,91,1148,0
360,233,1223,0
286,242,1165,0
230,288,1128,0
219,265,986,0
100,176,836,0
-20,8,699,0
-105,23,706,0
-105,26,745,0
-48,-44,824,0
30,-40,939,0
73,42,1060,0
73,91,1149,0
29,4,1170,0
-136,85,1319,0
7,239,1308,0
-119,102,1221,0
-196,303,1234,0
-114,222,1178,0
-4,102,987,0
31,18,851,0
56,4,767,0
4,4,728,0
-12,41,793,0
50,104,898,0
122,147,980,0
190,224,1116,0
297,137,1118,0
201,133,1169,0
239,326,1146,0
146,397,1134,0
210,285,1047,0
197,181,904,0
78,77,768,0
-99,85,728,0
-168,117,746,0
-155,49,770,0
-121,71,865,0
-101,124,1000,0
-89,127,1113,0
-106,116,1161,0
-181,134,1158,0
-299,194,1242,0
-191,307,1278,0
-203,186,1177,0
-236,361,1135,0
-156,325,1029,0
-31,150,855,0
66,77,757,0
102,32,709,0
93,54,748,0
113,85,840,0
127,97,918,0
135,187,1074,0
251,255,1190,0
236,242,1227,0
282,482,1204,0
153,529,1058,0
104,490,986,0
167,404,930,0
228,220,810,0
187,61,688,0
87,123,681,0
14,200,727,0
-48,102,758,0
-75,148,926,0
-42,139,1125,0
-1,110,1229,0
62,116,1292,0
-44,175,1289,0
5,432,1314,0
-38,367,1170,0
-110,351,1055,0
-123,395,1011,0
-40,297,863,0
-2,209,751,0
44,236,748,0
99,213,736,0
164,128,765,0
188,132,858,0
235,212,955,0
272,275,1105,0
437,286,1175,0
444,211,1199,0
498,280,1145,0
351,318,1052,0
325,355,974,0
331,299,876,0
290,223,731,0
142,168,631,0
-12,201,619,0
-126,203,688,0
-97,164,762,0
-43,129,1034,0
-155,85,1163,0
-253,74,1290,0
-330,32,1259,0
-422,192,1281,0
-244,450,1308,0
-223,256,1113,0
-203,512,1147,0
-97,304,935,0
8,114,758,0
61,104,737,0
86,72,723,0
89,-2,753,0
94,106,880,0
115,167,982,0
139,196,1098,0
132,210,1182,0
121,385,1214,0
32,500,1224,0
47,367,1136,0
173,316,1124,0
259,100,917,0
174,-28,779,0
69,0,707,0
-4,5,661,0
-55,-31,692,0
-93,42,842,0
-145,67,950,0
-205,108,1053,0
-154,227,1234,0
-114,188,1242,0
-112,346,1396,0
-112,173,1268,0
-145,241,1223,0
-60,232,1151,0
41,101,957,0
85,55,825,0
91,53,758,0
83,-32,719,0
109,-23,811,0
154,102,982,0
148,111,1053,0
196,187,1148,0
199,150,1165,0
287,273,1210,0
183,293,1168,0
144,287,1116,0
138,234,994,0
69,108,831,0
-62,17,731,0
-146,23,708,0
-188,-31,708,0
-183,-24,791,0
-138,57,916,0
-130,61,987,0
-152,40,1079,0
-149,35,1170,0
-392,17,1206,0
-219,423,1465,0
-211,190,1312,0
-128,337,1243,0
-92,202,1086,0
9,92,880,0
65,58,763,0
91,45,686,0
97,33,673,0
89,58,748,0
100,113,851,0
108,212,1003,0
183,275,1127,0
248,182,1068,0
224,328,1064,0
212,600,1116,0
185,495,1196,0
331,452,1131,0
316,211,939,0
189,112,775,0
39,123,700,0
-51,161,683,0
-121,113,714,0
-137,201,846,0
-161,299,986,0
-184,291,1083,0
-180,233,1128,0
-364,271,1205,0
-198,502,1113,0
-301,591,1070,0
-240,511,1009,0
-110,369,893,0
-18,212,797,0
6,150,741,0
-2,161,743,0
9,136,765,0
30,202,787,0
25,323,891,0
9,400,1068,0
68,317,1096,0
170,448,1250,0
147,571,1292,0
147,487,1246,0
210,357,1049,0
146,148,743,0
-22,132,596,0
-173,150,590,0
-316,139,649,0
-368,208,790,0
-284,352,1028,0
-210,232,1093,0
-189,199,1204,0
-153,243,1206,0
-330,183,1098,0
-313,429,1161,0
-262,425,1096,0
-284,445,1014,0
-177,523,1033,0
67,194,958,0
131,-24,901,0
47,-87,749,0
15,188,813,0
21,201,881,0
140,171,912,0
213,176,979,0
262,234,1078,0
274,151,1034,0
290,119,1093,0
332,228,1140,0
260,381,1164,0
189,326,1077,0
91,260,919,0
-97,145,792,0
-259,113,747,0
-348,82,755,0
-350,5,810,0
-306,22,878,0
-300,25,951,0
-308,8,1056,0
-334,55,1122,0
-425,241,1310,0
-263,262,1286,0
-255,241,1202,0
-224,340,1157,0
-69,269,1021,0
46,128,851,0
121,114,831,0
139,108,829,0
137,24,836,0
179,4,897,0
227,-13,874,0
145,60,941,0
167,138,1049,0
104,1,1090,0
93,277,1268,0
92,347,1334,0
241,181,1225,0
382,241,1145,0
269,-99,803,0
-30,-108,766,0
-185,15,818,0
-312,-108,795,0
-317,-152,826,0
-244,-57,915,0
-173,-16,1013,0
-57,-14,1113,0
21,-141,1073,0
-275,-209,1045,0
-528,-96,1130,0
-660,109,1249,0
-459,82,1180,0
-27,225,1178,0
242,201,964,0
253,-81,631,0
162,-142,598,0
154,-20,709,0
224,17,775,0
239,33,929,0
395,86,1112,0
509,-7,1161,0
478,327,1123,0
263,377,1131,0
231,234,1068,0
252,205,997,0
156,107,889,0
-38,79,807,0
-230,132,773,0
-318,265,871,0
-277,331,1048,0
-202,87,1045,0
-237,132,1080,0
-290,235,1184,0
-228,143,1150,0
-269,212,1202,0
-253,363,1234,0
-301,369,1205,0
-217,510,1187,0
-37,414,1058,0
105,221,871,0
156,142,747,0
142,129,728,0
150,160,737,0
184,76,751,0
205,79,799,0
157,157,902,0
244,192,1073,0
278,168,1202,0
446,369,1296,0
390,373,1192,0
303,348,1087,0
204,212,937,0
130,152,808,0
-54,164,731,0
-275,175,703,0
-314,141,767,0
-276,91,840,0
-296,65,938,0
-288,12,1072,0
-215,27,1168,0
-263,77,1184,0
-329,205,1242,0
-398,337,1208,0
-417,422,1158,0
-258,466,1098,0
-46,319,942,0
47,154,784,0
45,149,774,0
50,158,792,0
70,73,835,0
175,85,940,0
242,29,993,0
307,72,1064,0
262,0,1063,0
249,154,1094,0
163,394,1131,0
227,586,1217,0
310,230,1020,0
224,162,841,0
27,123,736,0
-150,149,740,0
-190,81,787,0
-178,31,892,0
-206,56,1033,0
-236,80,1169,0
-245,80,1297,0
-229,213,1352,0
-310,276,1327,0
-216,380,1269,0
-237,205,1054,0
-318,301,944,0
-227,399,940,0
-48,258,815,0
60,126,763,0
94,123,761,0
95,93,786,0
153,90,833,0
217,27,841,0
239,124,941,0
317,140,1026,0
337,-89,1010,0
300,231,1133,0
262,443,1331,0
360,293,1199,0
295,135,1002,0
87,129,839,0
-74,101,756,0
-172,16,694,0
-197,5,729,0
-243,54,824,0
-307,71,919,0
-323,98,1066,0
-268,150,1199,0
-349,213,1319,0
-266,375,1291,0
-316,321,1222,0
-268,426,1184,0
-117,333,1096,0
25,185,918,0
60,100,776,0
61,155,743,0
64,121,718,0
87,89,754,0
117,179,854,0
141,244,1000,0
283,135,1080,0
176,94,1142,0
218,452,1278,0
128,593,1341,0
198,365,1170,0
169,313,985,0
50,202,756,0
-111,155,657,0
-220,188,660,0
-244,160,698,0
-275,140,804,0
-327,197,939,0
-357,224,1081,0
-264,343,1256,0
-258,202,1200,0
-265,397,1278,0
-227,383,1215,0
-210,360,1096,0
-203,410,1043,0
-100,333,925,0
0,184,783,0
33,203,761,0
58,201,771,0
87,151,802,0
152,218,915,0
206,172,968,0
242,171,1037,0
267,97,1070,0
208,148,1060,0
119,350,1064,0
147,477,1176,0
299,315,1082,0
313,136,927,0
218,17,778,0
84,73,731,0
-67,115,726,0
-175,97,805,0
-198,203,929,0
-215,258,1037,0
-308,241,1181,0
-432,292,1197,0
-502,401,1257,0
-398,477,1205,0
-318,499,1131,0
-225,492,1029,0
-116,428,906,0
21,251,781,0
102,179,706,0
106,116,674,0
105,121,738,0
137,144,864,0
166,124,951,0
146,237,1080,0
208,275,1168,0
103,187,1120,0
130,449,1154,0
111,658,1200,0
178,516,1129,0
198,316,985,0
141,135,783,0
31,105,648,0
-128,192,592,0
-239,185,635,0
-267,189,723,0
-303,252,833,0
-386,286,977,0
-337,411,1148,0
-472,351,1234,0
-385,662,1322,0
-486,599,1289,0
-365,771,1180,0
-200,640,1014,0
-8,371,776,0
79,245,615,0
76,228,584,0
50,238,645,0
20,212,725,0
60,316,870,0
182,420,1098,0
398,305,1145,0
372,225,1226,0
477,109,1277,0
357,410,1115,0
246,598,1082,0
244,264,920,0
216,176,708,0
56,148,598,0
-125,149,623,0
-213,128,654,0
-277,207,917,0
-306,253,1077,0
-364,278,1233,0
-223,592,1452,0
-74,591,1375,0
-197,476,1250,0
-217,591,1116,0
-180,395,925,0
-89,340,788,0
-7,293,701,0
-17,235,637,0
-55,241,684,0
-24,225,777,0
85,280,894,0
178,229,968,0
210,212,1004,0
259,205,1034,0
145,115,1023,0
216,311,1059,0
193,722,1264,0
271,452,1127,0
218,283,933,0
84,98,705,0
-77,132,641,0
-200,168,668,0
-242,111,687,0
-278,171,849,0
-257,360,1069,0
-193,368,1215,0
-94,303,1284,0
-117,496,1388,0
-12,477,1272,0
-142,309,1112,0
-195,466,1087,0
-155,414,1008,0
-79,253,884,0
-34,209,824,0
1,163,746,0
47,105,750,0
142,87,787,0
210,73,821,0
198,100,865,0
228,221,1008,0
261,190,1051,0
281,155,1110,0
312,421,1197,0
245,493,1221,0
284,388,1109,0
275,260,856,0
163,112,599,0
26,173,559,0
-74,246,662,0
-159,215,750,0
-203,227,904,0
-241,296,1054,0
-231,360,1229,0
-151,313,1285,0
-292,401,1375,0
-155,620,1368,0
-219,513,1249,0
-173,655,1196,0
-42,551,1030,0
40,288,831,0
84,283,773,0
95,268,718,0
80,185,678,0
100,157,701,0
156,203,760,0
158,255,862,0
226,279,970,0
220,140,1037,0
289,275,1143,0
268,503,1254,0
296,429,1207,0
326,302,1068,0
264,104,807,0
80,116,699,0
-81,201,694,0
-169,213,738,0
-197,205,819,0
-250,246,944,0
-298,273,1074,0
-259,239,1169,0
-390,169,1229,0
-269,455,1315,0
-339,399,1270,0
-324,604,1255,0
-162,671,1212,0
69,476,991,0
143,295,800,0
155,240,704,0
121,214,663,0
77,149,693,0
134,205,804,0
199,207,890,0
325,193,1013,0
394,22,1004,0
360,159,1088,0
283,351,1173,0
356,435,1229,0
409,196,1040,0
294,191,860,0
22,201,720,0
-249,207,737,0
-299,231,854,0
-246,264,963,0
-243,129,970,0
-253,172,1049,0
-222,219,1091,0
-275,168,1108,0
-245,370,1183,0
-274,480,1253,0
-228,538,1224,0
-115,505,1202,0
35,450,1059,0
153,291,869,0
