AccX [mg],AccY,AccZ,Ground Truth
-565,846,-224,2
-541,828,-211,2
-534,806,-166,2
-513,793,-106,2
-510,755,-99,2
-518,693,-104,2
-494,723,-109,2
-517,730,-147,2
-559,775,-195,2
-514,789,-177,2
-551,742,-167,2
-610,901,-227,2
-562,857,-181,2
-538,763,-266,2
-590,837,-271,2
-575,788,-395,2
-502,714,-495,2
-519,849,-420,2
-522,544,-492,2
-547,627,-494,2
-552,594,-551,2
-548,577,-516,2
-554,602,-495,2
-582,571,-465,2
-575,552,-535,2
-586,619,-512,2
-558,581,-547,2
-584,622,-530,2
-558,671,-577,2
-561,616,-568,2
-554,628,-552,2
-546,558,-571,2
-550,596,-546,2
-576,629,-588,2
-591,542,-537,2
-550,548,-515,2
-557,655,-515,2
-533,632,-490,2
-521,752,-484,2
-510,728,-470,2
-528,755,-486,2
-539,760,-410,2
-515,653,-412,2
-508,594,-446,2
-530,612,-421,2
-524,709,-440,2
-542,739,-378,2
-520,771,-432,2
-515,746,-440,2
-498,779,-361,2
-479,810,-439,2
-465,765,-420,2
-457,796,-344,2
-452,822,-458,2
-468,853,-314,2
-416,951,-317,2
-469,748,-204,2
-462,759,-140,2
-454,687,-191,2
-390,864,-157,2
-347,898,-158,2
-344,886,-151,2
-372,1085,-166,2
-404,860,-128,2
-334,927,-191,2
-429,742,-79,2
-430,926,-42,2
-443,865,-92,2
-448,904,-56,2
-454,885,-63,2
-428,864,-86,2
-428,907,-95,2
-427,836,-91,2
-424,892,-89,2
-448,879,-72,2
-420,842,-117,2
-454,885,-80,2
-426,866,-20,2
-432,922,22,2
-432,877,0,2
-410,912,40,2
-405,895,67,2
-388,947,48,2
-399,896,27,2
-387,908,55,2
-408,883,23,2
-403,881,33,2
-430,888,6,2
-448,832,-42,2
-453,934,-39,2
-458,824,-40,2
-454,894,-25,2
-435,852,0,2
-412,902,21,2
-416,924,34,2
-429,865,2,2
-419,874,14,2
-406,873,26,2
-394,908,-3,2
-391,942,7,2
-408,924,26,2
-410,917,53,2
-392,956,33,2
-444,822,56,2
-410,897,7,2
-419,850,14,2
-430,845,47,2
-414,908,7,2
-450,890,-3,2
-435,901,21,2
-429,858,58,2
-432,814,10,2
-433,851,-1,2
-440,917,7,2
-433,891,-15,2
-449,883,1,2
-430,898,20,2
-422,868,-10,2
-410,880,-44,2
-418,882,-35,2
-417,854,-62,2
-424,948,-58,2
-439,878,-37,2
-427,865,-12,2
-405,879,-26,2
-379,845,-28,2
-333,825,-10,2
-261,769,29,2
-206,751,62,2
-118,788,139,2
-90,819,227,2
-6,1133,313,2
-16,929,336,2
174,790,579,2
276,622,746,2
289,699,799,2
321,807,769,2
306,888,685,2
378,801,665,2
429,612,714,2
482,643,758,2
523,552,658,2
598,383,635,2
631,370,673,2
673,351,703,2
630,524,576,2
687,436,578,2
727,422,525,2
727,433,459,2
790,477,423,2
810,452,361,2
838,415,320,2
875,368,273,2
867,366,248,2
917,315,195,2
924,391,202,2
916,267,95,2
916,327,92,2
949,244,71,2
946,254,49,2
939,223,32,2
947,216,14,2
942,236,21,2
949,225,23,2
950,264,19,2
948,234,40,2
939,221,33,2
948,232,42,2
954,244,30,2
939,263,36,2
924,274,39,2
942,281,60,2
931,288,85,2
926,285,91,2
917,299,89,2
933,312,98,2
928,301,95,2
926,322,76,2
919,310,88,2
923,319,95,2
921,333,95,2
925,333,96,2
922,315,99,2
919,315,98,2
917,319,91,2
917,316,95,2
923,313,107,2
915,321,114,2
927,325,121,2
917,321,132,2
918,315,124,2
917,315,123,2
914,308,122,2
919,306,139,2
924,302,140,2
914,300,142,2
905,324,134,2
921,300,143,2
925,301,156,2
921,305,141,2
906,324,138,2
931,297,129,2
917,302,140,2
916,304,130,2
921,301,147,2
921,308,142,2
923,300,140,2
923,292,132,2
921,293,127,2
923,292,121,2
919,299,131,2
924,297,133,2
929,312,138,2
925,301,131,2
915,309,127,2
918,304,126,2
915,305,140,2
913,297,155,2
920,289,177,2
913,312,169,2
918,307,164,2
922,294,174,2
922,292,173,2
917,299,170,2
920,287,174,2
925,292,179,2
929,299,176,2
913,295,168,2
916,311,165,2
911,290,184,2
915,283,210,2
915,280,216,2
924,293,215,2
911,294,211,2
914,298,191,2
912,283,176,2
916,264,180,2
947,241,198,2
878,263,139,2
942,340,201,2
945,286,181,2
921,269,134,2
916,291,137,2
911,279,185,2
895,308,208,2
913,281,228,2
932,267,252,2
906,291,229,2
898,302,237,2
919,303,228,2
902,299,225,2
907,296,223,2
910,298,219,2
902,286,228,2
907,312,225,2
917,286,218,2
921,271,220,2
907,310,187,2
903,293,180,2
914,288,205,2
918,285,224,2
914,288,223,2
911,305,224,2
911,302,223,2
910,284,211,2
908,289,202,2
912,294,211,2
905,293,222,2
911,309,234,2
904,314,232,2
907,292,241,2
900,298,245,2
901,305,234,2
903,297,228,2
905,303,223,2
911,313,229,2
887,312,224,2
908,310,231,2
913,304,232,2
901,285,246,2
887,308,261,2
889,303,271,2
934,246,278,2
909,312,263,2
848,331,260,2
908,272,250,2
920,254,282,2
901,327,241,2
873,314,226,2
902,313,255,2
892,307,267,2
893,290,301,2
878,289,339,2
860,310,342,2
869,358,354,2
842,380,352,2
861,312,346,2
901,334,336,2
866,316,297,2
873,307,298,2
859,343,300,2
874,350,297,2
881,360,257,2
889,333,263,2
883,298,258,2
881,334,276,2
863,337,319,2
874,300,360,2
868,325,339,2
887,321,343,2
872,319,313,2
871,341,279,2
871,317,273,2
870,336,260,2
881,370,245,2
881,380,244,2
879,403,267,2
862,324,306,2
875,340,315,2
872,318,356,2
862,310,371,2
875,308,397,2
864,289,380,2
857,337,381,2
870,307,342,2
859,341,302,2
876,356,246,2
894,324,210,2
870,337,232,2
859,345,254,2
871,393,301,2
882,321,335,2
878,342,317,2
878,308,334,2
868,306,320,2
865,334,326,2
868,384,333,2
854,335,333,2
873,339,327,2
866,337,319,2
868,350,285,2
876,348,273,2
863,364,262,2
871,354,268,2
890,309,289,2
873,323,312,2
880,365,287,2
850,393,267,2
865,349,279,2
880,328,308,2
880,301,316,2
868,336,293,2
867,349,303,2
875,345,299,2
869,358,300,2
867,355,290,2
880,347,302,2
859,377,282,2
842,386,288,2
889,304,315,2
885,349,318,2
860,333,290,2
873,357,268,2
863,393,260,2
867,373,263,2
871,370,266,2
858,364,293,2
851,378,307,2
842,372,319,2
856,394,333,2
859,375,329,2
883,332,315,2
843,359,271,2
834,361,311,2
873,384,304,2
875,359,301,2
867,393,272,2
859,388,261,2
861,363,271,2
858,367,288,2
858,365,309,2
855,371,324,2
857,357,332,2
848,372,320,2
851,384,309,2
858,363,316,2
859,377,307,2
861,363,296,2
858,374,295,2
855,377,292,2
860,384,304,2
856,378,300,2
849,381,299,2
849,376,308,2
850,360,330,2
846,366,350,2
852,374,342,2
845,380,339,2
859,369,315,2
852,360,298,2
870,368,269,2
863,351,275,2
872,389,256,2
866,392,254,2
864,362,271,2
884,348,288,2
875,349,293,2
860,333,287,2
871,343,277,2
888,368,270,2
861,360,262,2
881,368,254,2
879,342,278,2
871,338,279,2
871,371,265,2
885,273,271,2
910,364,250,2
848,348,266,2
867,357,271,2
883,349,315,2
891,322,310,2
879,325,291,2
886,351,280,2
875,357,253,2
871,393,253,2
868,396,287,2
875,437,310,2
874,419,346,2
902,515,267,2
825,485,250,2
793,399,311,2
756,282,368,2
716,226,420,2
725,369,642,2
714,484,650,2
700,129,605,2
809,178,606,2
746,366,547,2
728,270,655,2
722,232,638,2
656,194,705,2
621,264,797,2
555,225,704,2
643,452,829,2
572,210,600,2
603,541,795,2
555,358,670,2
621,438,743,2
650,303,643,2
719,240,675,2
636,259,774,2
598,188,773,2
763,119,636,2
770,145,696,2
797,171,580,2
742,139,590,2
741,243,522,2
798,208,469,2
815,234,533,2
815,272,558,2
755,189,576,2
759,288,689,2
845,223,668,2
918,303,767,2
613,65,644,2
683,-96,524,2
690,85,539,2
823,119,760,2
850,5,719,2
1180,-40,374,2
821,297,527,2
343,321,695,2
132,153,573,2
33,-251,269,2
316,365,683,2
1985,-138,-220,2
-469,170,656,2
965,581,757,2
846,123,273,2
715,425,742,2
785,316,465,2
507,389,651,2
861,251,521,2
907,557,340,2
777,186,567,2
722,233,645,2
859,142,991,2
928,291,823,2
1178,265,687,2
1301,-220,277,2
1075,248,492,2
694,54,544,2
185,50,413,2
183,-49,461,2
-124,-215,114,2
-453,-598,-319,2
-68,888,1127,2
686,543,1047,2
1718,-711,605,2
-1271,371,-39,2
912,758,822,2
1369,-129,-91,2
736,93,563,2
801,753,739,2
355,152,456,2
685,621,540,2
1041,155,829,2
619,583,759,2
837,407,671,2
1422,445,551,2
1018,433,714,2
419,230,682,2
96,137,416,2
-59,-146,174,2
-423,-598,-899,2
-1494,-3,1445,2
157,756,611,2
-1197,763,132,2
328,215,660,2
811,158,126,2
473,198,504,2
101,-102,-415,2
-1018,-88,1061,2
937,812,1769,2
181,-487,767,2
-491,768,545,2
458,619,670,2
1547,132,-178,2
586,637,711,2
-308,-377,138,2
-957,-512,1004,2
-721,46,844,2
1392,-2,1477,2
-972,275,-632,2
-680,624,921,2
966,1117,703,2
870,-773,393,2
317,857,1009,2
374,370,832,2
539,429,847,2
801,482,854,2
503,300,752,2
515,444,636,2
542,134,668,2
594,282,593,2
648,327,585,2
601,340,651,2
556,297,596,2
596,328,612,2
588,376,899,2
602,340,720,2
676,358,654,2
504,365,843,2
538,336,753,2
542,320,737,2
456,333,883,2
487,356,842,2
503,318,842,2
481,321,817,2
484,274,835,2
443,284,860,2
424,263,863,2
422,330,897,2
390,223,813,2
72,-46,1083,2
462,9,1065,2
642,941,609,2
686,-300,949,2
496,555,533,2
528,326,851,2
297,311,839,2
303,199,845,2
172,234,1347,2
539,325,650,2
643,369,825,2
536,285,653,2
421,466,852,2
385,285,836,2
398,356,920,2
465,232,862,2
456,304,848,2
508,329,827,2
450,318,806,2
413,348,851,2
367,292,880,2
353,302,887,2
356,330,880,2
369,350,864,2
363,381,845,2
336,326,844,2
298,361,915,2
218,255,940,2
238,292,968,2
196,249,963,2
209,265,953,2
208,299,954,2
220,322,919,2
203,342,926,2
175,372,913,2
159,373,932,2
150,371,917,2
155,355,927,2
176,363,922,2
182,379,894,2
180,398,897,2
150,405,897,2
137,432,897,2
71,400,939,2
92,425,958,2
101,392,909,2
123,373,919,2
141,377,945,2
137,328,893,2
155,390,961,2
125,404,876,2
81,426,942,2
75,449,939,2
120,442,892,2
135,452,925,2
91,461,912,2
160,514,913,2
110,470,860,2
143,470,829,2
92,355,924,2
210,451,946,2
191,419,787,2
383,441,861,2
740,308,513,2
449,217,591,2
39,649,1410,2
-100,674,901,2
422,903,569,2
196,564,676,2
209,523,747,2
169,505,917,2
266,439,920,2
385,482,842,2
520,473,639,2
526,595,730,2
367,616,856,2
410,740,748,2
384,673,658,2
411,434,562,2
338,356,851,2
393,343,928,2
417,439,858,2
676,179,676,2
339,556,713,2
1064,409,548,2
857,74,552,2
628,466,450,2
866,436,815,2
709,431,802,2
760,406,768,2
727,229,704,2
763,50,638,2
614,81,518,2
813,349,731,2
822,242,544,2
1138,361,643,2
1343,170,414,2
1510,74,118,2
1518,318,413,2
1131,320,384,2
866,549,260,2
732,985,-193,2
736,1495,-114,2
618,1910,124,2
68,1748,23,2
-121,1119,206,2
-96,544,411,2
389,353,846,2
604,487,1302,2
473,403,1495,2
660,104,828,2
890,-345,857,2
991,98,1144,2
1224,-725,240,2
914,-254,323,2
804,330,550,2
740,-102,395,2
944,-83,413,2
968,-51,435,2
914,-5,466,2
870,-73,526,2
891,-75,523,2
837,-96,493,2
857,-83,524,2
843,-85,504,2
851,-85,512,2
819,-126,490,2
847,-44,568,2
835,-108,493,2
846,-102,514,2
845,-106,494,2
871,-32,547,2
861,-91,509,2
848,-94,509,2
840,-72,482,2
787,-76,559,2
868,-61,503,2
835,-50,598,2
856,-36,631,2
750,-91,533,2
868,6,543,2
818,-29,412,2
764,141,913,2
774,-59,413,2
916,-57,441,2
846,234,712,2
681,-12,577,2
745,-112,688,2
890,334,736,2
772,231,541,2
728,49,670,2
719,172,674,2
730,230,712,2
769,-89,643,2
747,30,497,2
798,35,451,2
817,44,547,2
760,103,438,2
795,845,473,2
822,-12,510,2
815,-125,463,2
780,21,431,2
895,7,680,2
818,189,556,2
790,166,685,2
775,237,480,2
867,273,561,2
827,183,520,2
817,289,603,2
779,244,565,2
785,234,616,2
785,241,534,2
784,269,560,2
809,287,534,2
807,331,473,2
820,348,454,2
808,403,405,2
814,399,427,2
816,368,484,2
816,323,420,2
867,402,538,2
869,91,342,2
866,296,250,2
936,248,423,2
901,238,292,2
855,312,440,2
781,320,634,2
722,247,855,2
431,519,874,2
279,730,899,2
67,680,582,2
139,820,205,2
328,898,-195,2
459,765,-350,2
694,896,-285,2
798,379,-147,2
882,-388,310,2
1085,1026,996,2
527,675,529,2
642,754,523,2
699,628,394,2
676,631,299,2
688,609,394,2
663,682,382,2
657,600,317,2
653,653,390,2
641,650,410,2
608,656,367,2
676,666,427,2
609,685,320,2
639,550,388,2
654,650,380,2
686,575,444,2
672,633,395,2
687,545,382,2
671,678,467,2
716,644,401,2
689,601,490,2
704,408,595,2
584,582,484,2
714,578,475,2
664,371,596,2
651,458,574,2
644,417,519,2
631,427,463,2
729,430,628,2
703,420,606,2
706,306,535,2
697,379,528,2
697,503,584,2
662,338,528,2
582,593,501,2
548,700,406,2
591,718,448,2
586,481,498,2
572,478,507,2
603,526,597,2
677,447,586,2
661,426,582,2
645,522,724,2
701,460,583,2
781,103,529,2
739,140,451,2
628,118,53,2
712,561,257,2
694,408,302,2
648,356,92,2
714,703,-217,2
802,1110,-277,2
1409,958,209,2
636,1066,444,2
384,1124,422,2
820,27,295,2
668,962,513,2
1018,30,-285,2
635,1005,-455,2
358,1020,106,2
411,856,-390,2
625,848,-129,2
587,822,-163,2
583,846,-206,2
491,807,-183,2
489,815,-286,2
450,803,-218,2
440,801,-207,2
451,857,-241,2
425,787,-311,2
459,806,-288,2
492,833,-244,2
491,833,-255,2
434,787,-344,2
438,777,-273,2
480,802,-339,2
481,737,-333,2
530,783,-342,2
513,785,-324,2
478,726,-353,2
521,773,-333,2
523,776,-305,2
496,755,-324,2
518,770,-324,2
544,777,-327,2
567,809,-271,2
542,762,-298,2
643,789,-358,2
440,704,-199,2
360,652,-429,2
466,782,-167,2
575,790,-248,2
579,788,-122,2
537,795,-111,2
526,790,-225,2
471,816,-92,2
546,745,-416,2
556,794,-253,2
483,796,-175,2
442,822,-311,2
494,810,-239,2
452,791,-374,2
490,754,-330,2
540,831,-218,2
513,788,-303,2
543,795,-302,2
531,762,-314,2
534,816,-281,2
547,757,-268,2
571,771,-274,2
588,779,-182,2
626,777,-205,2
721,780,-45,2
729,905,48,2
686,772,-7,2
465,885,-47,2
523,669,59,2
624,702,11,2
707,484,85,2
734,533,-221,2
713,935,-514,2
768,1220,-258,2
684,1065,-143,2
411,989,-358,2
360,831,-317,2
391,790,-442,2
463,780,-179,2
467,540,-262,2
638,-210,-57,2
1088,-415,592,2
609,1165,569,2
615,760,226,2
506,922,413,2
678,755,549,2
474,657,368,2
511,657,523,2
483,847,472,2
318,975,623,2
393,711,303,2
351,917,416,2
351,744,434,2
456,602,451,2
653,813,486,2
503,736,441,2
525,629,377,2
646,659,551,2
286,855,503,2
531,499,447,2
424,845,607,2
393,456,650,2
530,852,484,2
637,274,573,2
824,439,395,2
675,561,415,2
212,699,901,2
494,793,431,2
402,899,548,2
533,607,363,2
403,781,583,2
584,687,441,2
736,497,450,2
447,813,480,2
257,881,630,2
188,775,710,2
333,827,524,2
319,681,644,2
502,712,383,2
434,660,663,2
649,637,340,2
504,602,677,2
392,642,556,2
358,683,643,2
376,641,648,2
386,544,613,2
577,710,643,2
656,163,561,2
624,467,719,2
521,732,526,2
228,570,817,2
483,667,690,2
498,551,607,2
460,614,643,2
553,418,633,2
541,593,637,2
483,563,641,2
568,608,555,2
534,583,552,2
584,486,560,2
640,396,479,2
686,547,341,2
523,610,336,2
619,608,-55,2
325,379,12,2
442,551,-30,2
540,862,-709,2
624,793,-703,2
888,1022,-563,2
673,1026,-91,2
638,890,-112,2
688,946,-98,2
827,781,-112,2
1031,596,40,2
900,416,249,2
920,524,-20,2
817,626,-187,2
831,588,-242,2
793,643,-296,2
790,566,-441,2
760,631,-340,2
682,525,-325,2
696,635,-257,2
657,585,-249,2
639,686,-252,2
559,710,-54,2
505,748,-184,2
483,844,-246,2
520,712,-244,2
609,667,-206,2
688,696,-281,2
743,537,-154,2
900,632,-185,2
717,730,-503,2
671,711,-326,2
579,450,-473,2
636,629,-326,2
663,455,-240,2
731,637,-309,2
694,665,-379,2
668,591,-329,2
676,586,-322,2
665,625,-339,2
683,642,-371,2
688,601,-346,2
643,591,-363,2
656,592,-343,2
676,647,-286,2
644,519,-314,2
734,664,-338,2
747,705,-375,2
759,508,-313,2
782,522,-322,2
762,572,-391,2
746,523,-393,2
769,467,-337,2
779,461,-314,2
776,485,-317,2
781,478,-297,2
866,485,-288,2
864,483,-229,2
926,461,-201,2
911,403,-175,2
902,431,-112,2
932,277,-93,2
951,406,-164,2
957,376,-165,2
938,269,-109,2
993,238,-42,2
955,244,110,2
1069,228,121,2
995,344,11,2
751,528,-95,2
834,293,-151,2
970,6,-23,2
812,207,-35,2
835,222,112,2
889,307,133,2
860,488,63,2
822,442,72,2
850,260,228,2
846,350,121,2
864,251,360,2
890,361,321,2
854,512,382,2
827,591,288,2
750,787,231,2
737,863,177,2
685,780,-48,2
610,815,-108,2
668,510,-250,2
691,217,-252,2
686,60,61,2
789,402,223,2
739,640,199,2
853,1110,378,2
800,627,496,2
746,567,388,2
613,687,276,2
623,824,159,2
661,740,317,2
655,540,436,2
637,490,447,2
672,599,437,2
635,555,510,2
665,595,455,2
640,530,493,2
661,536,504,2
679,537,439,2
692,611,405,2
496,772,278,2
779,843,145,2
765,591,204,2
1010,453,344,2
928,260,358,2
759,462,292,2
764,354,292,2
872,489,261,2
725,575,205,2
807,511,305,2
776,540,300,2
708,776,239,2
534,796,254,2
556,740,228,2
704,590,300,2
709,521,333,2
660,566,310,2
557,713,248,2
553,732,224,2
547,827,237,2
598,831,247,2
633,720,260,2
626,721,282,2
638,701,257,2
638,685,290,2
626,667,281,2
641,631,297,2
637,696,317,2
625,721,302,2
619,720,300,2
628,700,267,2
603,728,285,2
625,751,285,2
626,733,330,2
617,741,324,2
606,676,343,2
629,710,331,2
620,660,359,2
622,663,360,2
640,652,349,2
615,653,360,2
647,702,356,2
622,722,311,2
627,705,349,2
614,671,348,2
619,703,378,2
628,686,375,2
607,662,398,2
600,681,365,2
588,652,409,2
619,685,393,2
610,680,381,2
626,681,350,2
624,662,386,2
593,692,367,2
666,522,390,2
702,571,432,2
664,474,495,2
640,463,492,2
718,561,472,2
621,568,463,2
479,804,407,2
523,737,390,2
515,810,356,2
572,784,371,2
578,740,358,2
589,688,393,2
619,651,390,2
618,626,403,2
667,591,425,2
658,601,404,2
660,559,425,2
665,561,410,2
649,585,398,2
660,622,382,2
636,618,369,2
632,655,378,2
626,677,361,2
604,681,363,2
632,721,336,2
598,714,335,2
628,714,329,2
609,693,344,2
617,703,336,2
629,663,322,2
652,664,302,2
698,634,298,2
718,603,309,2
691,602,313,2
700,571,287,2
662,604,278,2
672,574,319,2
786,698,317,2
722,605,311,2
758,708,258,2
748,576,220,2
703,574,217,2
749,535,307,2
952,260,465,2
785,462,443,2
844,558,435,2
682,532,364,2
622,592,260,2
664,624,248,2
663,633,274,2
667,647,272,2
667,691,289,2
675,676,302,2
682,640,271,2
666,650,244,2
647,677,224,2
634,699,225,2
625,729,250,2
625,709,268,2
610,717,280,2
588,720,271,2
575,755,260,2
575,747,260,2
589,747,253,2
606,725,254,2
600,724,254,2
611,728,257,2
603,731,253,2
587,749,252,2
609,751,263,2
606,765,292,2
636,819,328,2
650,805,365,2
627,774,480,2
545,652,391,2
456,787,330,2
453,759,315,2
431,719,380,2
463,789,417,2
444,688,337,2
430,700,360,2
452,646,258,2
477,702,278,2
505,698,355,2
501,698,343,2
502,820,369,2
508,805,388,2
515,769,362,2
584,791,361,2
635,723,291,2
693,631,260,2
688,628,283,2
663,669,285,2
640,681,306,2
650,687,289,2
675,588,262,2
700,640,327,2
702,645,334,2
703,649,333,2
692,652,343,2
695,639,322,2
686,598,305,2
664,585,301,2
672,570,307,2
711,566,376,2
755,571,414,2
714,537,388,2
721,559,366,2
716,578,350,2
731,559,324,2
721,559,336,2
750,565,354,2
741,566,367,2
743,554,363,2
739,573,366,2
759,563,356,2
748,569,345,2
730,569,336,2
747,576,343,2
720,532,345,2
740,556,357,2
718,543,361,2
706,553,372,2
710,562,386,2
696,561,392,2
701,573,396,2
697,580,393,2
691,563,386,2
701,592,385,2
683,569,371,2
675,618,373,2
673,604,370,2
672,609,369,2
654,601,378,2
687,595,386,2
706,579,387,2
761,496,433,2
670,509,404,2
709,592,398,2
637,606,365,2
665,698,321,2
686,622,310,2
689,649,377,2
672,593,374,2
711,533,393,2
780,484,446,2
642,522,434,2
694,636,389,2
695,540,375,2
618,613,281,2
887,694,306,2
666,560,309,2
673,672,378,2
643,584,403,2
736,483,415,2
749,511,404,2
740,498,384,2
716,559,370,2
728,532,350,2
749,555,344,2
773,534,338,2
764,497,342,2
738,530,362,2
743,521,373,2
736,520,380,2
719,542,378,2
719,536,380,2
732,525,357,2
752,512,359,2
763,540,351,2
766,520,312,2
753,534,333,2
767,521,352,2
763,503,393,2
779,491,370,2
755,485,405,2
777,484,387,2
757,474,382,2
777,450,389,2
764,467,375,2
771,463,382,2
777,483,361,2
750,501,369,2
765,532,344,2
754,497,348,2
770,514,342,2
752,509,349,2
764,505,354,2
756,523,358,2
759,513,361,2
757,527,353,2
745,529,352,2
743,551,355,2
731,551,356,2
727,590,356,2
711,581,353,2
707,600,354,2
699,588,337,2
692,615,333,2
689,619,318,2
676,623,315,2
678,644,317,2
679,627,320,2
696,603,325,2
700,592,332,2
720,566,332,2
731,564,329,2
737,570,328,2
730,583,298,2
725,572,303,2
720,594,306,2
701,586,314,2
697,608,324,2
695,612,331,2
683,602,332,2
689,623,333,2
712,593,328,2
739,575,310,2
734,572,303,2
748,564,293,2
757,550,297,2
774,536,281,2
764,530,274,2
784,510,274,2
771,553,269,2
756,564,279,2
770,563,250,2
784,530,261,2
804,514,256,2
788,514,243,2
780,524,242,2
781,542,239,2
777,549,251,2
779,539,261,2
776,536,251,2
777,530,261,2
777,529,253,2
772,545,264,2
774,544,254,2
754,570,255,2
748,586,242,2
752,582,256,2
763,568,261,2
750,581,268,2
734,572,259,2
729,595,254,2
721,590,250,2
742,609,245,2
737,571,260,2
750,564,259,2
769,549,272,2
774,553,269,2
747,568,264,2
745,574,253,2
756,589,243,2
744,579,229,2
742,618,232,2
726,604,224,2
725,619,231,2
717,618,232,2
716,614,238,2
718,617,231,2
710,615,241,2
712,634,243,2
695,639,244,2
686,647,243,2
661,675,263,2
659,678,256,2
640,687,277,2
635,706,285,2
615,709,290,2
617,702,308,2
614,696,294,2
601,708,284,2
590,743,293,2
587,731,271,2
596,716,288,2
607,717,288,2
597,703,297,2
604,718,302,2
597,717,295,2
594,723,300,2
582,726,306,2
583,711,322,2
583,713,339,2
576,724,350,2
581,720,352,2
568,718,348,2
579,714,329,2
596,712,337,2
626,683,318,2
619,682,332,2
641,651,354,2
643,1007,358,2
552,1132,361,2
428,772,193,2
367,726,111,2
377,632,-65,2
378,697,-65,2
412,855,-108,2
457,721,-193,2
503,596,-25,2
661,803,403,2
597,417,513,2
754,807,561,2
661,621,733,2
566,609,561,2
519,648,498,2
547,674,530,2
613,616,492,2
636,510,454,2
652,594,511,2
617,614,529,2
602,607,503,2
590,604,503,2
604,604,505,2
608,594,495,2
603,596,483,2
587,632,480,2
591,633,477,2
587,625,473,2
591,633,480,2
594,624,479,2
595,621,478,2
592,625,485,2
582,628,486,2
586,624,486,2
581,633,491,2
572,638,492,2
563,645,494,2
562,643,491,2
568,648,487,2
567,630,494,2
575,632,489,2
571,634,483,2
571,647,481,2
572,632,469,2
584,634,479,2
580,631,487,2
582,637,485,2
571,635,484,2
578,636,484,2
580,633,481,2
576,636,481,2
572,639,479,2
564,643,478,2
559,652,478,2
558,659,483,2
549,646,488,2
560,666,469,2
555,673,464,2
557,659,460,2
569,649,470,2
561,662,468,2
551,640,480,2
565,660,479,2
582,656,490,2
576,601,508,2
544,607,479,2
566,692,480,2
548,675,466,2
556,673,449,2
551,681,430,2
596,614,448,2
599,687,510,2
517,594,452,2
564,675,570,2
578,618,486,2
567,681,461,2
591,629,455,2
596,633,451,2
570,637,477,2
557,658,494,2
557,665,487,2
576,616,491,2
588,635,468,2
577,664,466,2
568,680,469,2
540,668,475,2
590,565,500,2
603,653,466,2
558,654,484,2
573,643,462,2
579,658,475,2
580,611,484,2
579,624,486,2
567,646,489,2
571,634,480,2
580,636,482,2
589,617,485,2
584,625,487,2
593,624,485,2
586,634,485,2
579,636,485,2
582,622,487,2
584,620,494,2
585,639,481,2
586,631,476,2
590,630,470,2
589,635,464,2
584,633,471,2
591,618,479,2
594,610,483,2
586,625,486,2
583,624,479,2
585,635,474,2
580,636,471,2
571,651,471,2
557,657,475,2
554,655,480,2
556,650,481,2
553,656,481,2
545,663,481,2
531,680,482,2
537,683,485,2
547,660,481,2
561,649,475,2
572,644,470,2
573,649,464,2
573,670,468,2
575,671,470,2
578,665,470,2
571,648,456,2
564,645,437,2
565,659,432,2
572,664,434,2
566,653,443,2
559,660,442,2
562,679,443,2
560,684,443,2
552,684,448,2
552,684,450,2
564,690,462,2
577,664,457,2
581,678,459,2
595,649,450,2
589,661,453,2
591,655,450,2
583,643,423,2
576,654,447,2
603,645,451,2
620,625,442,2
610,626,424,2
581,630,406,2
575,648,386,2
575,656,391,2
581,672,403,2
613,668,420,2
617,658,423,2
632,652,426,2
615,626,410,2
594,634,411,2
598,638,424,2
597,633,425,2
590,644,424,2
600,673,457,2
603,653,466,2
610,628,456,2
617,598,439,2
606,612,438,2
598,630,439,2
591,649,456,2
603,631,458,2
610,630,465,2
626,609,455,2
608,629,464,2
645,618,448,2
625,619,447,2
639,609,441,2
635,619,447,2
642,601,446,2
636,622,446,2
637,601,439,2
639,613,441,2
647,601,435,2
637,608,432,2
636,605,435,2
642,609,439,2
651,590,438,2
655,601,438,2
647,599,432,2
647,595,435,2
647,582,435,2
644,601,437,2
646,592,441,2
656,586,445,2
657,576,451,2
642,599,449,2
641,603,455,2
640,591,444,2
632,597,442,2
621,612,451,2
625,613,457,2
627,607,455,2
631,604,453,2
636,599,451,2
640,604,445,2
632,619,443,2
632,607,449,2
644,590,453,2
635,601,448,2
626,607,447,2
627,614,446,2
626,599,446,2
626,621,457,2
626,606,452,2
627,607,449,2
630,609,451,2
628,606,450,2
632,606,450,2
633,602,447,2
625,607,449,2
626,618,455,2
628,601,452,2
632,605,456,2
625,603,456,2
622,606,461,2
631,601,461,2
625,612,452,2
631,612,447,2
633,606,449,2
634,603,449,2
630,606,456,2
624,610,452,2
631,606,455,2
635,603,449,2
630,601,454,2
635,596,459,2
634,599,453,2
637,599,452,2
632,600,450,2
629,606,453,2
634,599,454,2
637,595,457,2
636,595,458,2
633,592,454,2
633,598,457,2
633,598,457,2
637,598,457,2
631,602,458,2
630,600,458,2
633,599,459,2
631,598,454,2
627,602,456,2
625,608,459,2
625,602,457,2
629,602,458,2
630,602,457,2
625,604,456,2
628,603,458,2
629,606,459,2
629,603,454,2
625,604,460,2
626,606,461,2
624,607,461,2
626,604,459,2
628,601,458,2
628,602,462,2
631,606,459,2
628,603,447,2
626,606,453,2
627,606,461,2
635,601,458,2
631,598,448,2
628,608,450,2
623,611,453,2
624,610,452,2
617,616,451,2
620,614,457,2
625,607,460,2
623,613,454,2
615,619,456,2
614,624,461,2
617,614,449,2
605,623,461,2
611,622,464,2
623,613,460,2
624,613,447,2
608,619,451,2
602,627,471,2
611,624,461,2
611,618,470,2
613,623,471,2
611,591,472,2
611,650,480,2
620,612,477,2
610,554,475,2
585,619,483,2
596,587,514,2
613,607,509,2
613,561,517,2
606,593,513,2
582,594,537,2
584,593,548,2
582,624,543,2
572,611,541,2
520,614,505,2
509,651,519,2
545,592,525,2
597,598,517,2
656,602,500,2
664,574,481,2
604,569,449,2
541,590,423,2
551,602,464,2
649,666,546,2
679,564,499,2
643,571,472,2
599,610,467,2
590,626,478,2
599,617,478,2
614,609,487,2
611,603,485,2
606,621,482,2
598,637,484,2
583,628,479,2
583,625,468,2
593,626,475,2
588,624,473,2
583,632,466,2
593,628,477,2
612,614,477,2
609,612,472,2
596,625,467,2
593,631,466,2
600,627,461,2
599,632,467,2
595,632,463,2
593,625,464,2
592,628,469,2
596,615,465,2
610,608,467,2
623,608,468,2
616,618,464,2
605,623,457,2
605,646,461,2
596,629,457,2
611,630,465,2
602,632,465,2
605,628,459,2
613,620,455,2
608,623,454,2
602,633,452,2
583,654,455,2
570,666,462,2
574,665,458,2
575,650,464,2
574,649,477,2
579,640,475,2
590,629,478,2
601,614,469,2
609,616,461,2
607,619,455,2
605,621,454,2
598,624,464,2
588,589,497,2
608,659,437,2
578,640,484,2
598,601,462,2
582,649,454,2
549,663,480,2
598,640,475,2
582,636,493,2
603,624,482,2
588,635,480,2
586,643,477,2
595,627,473,2
618,624,467,2
632,599,468,2
646,583,443,2
632,600,438,2
625,649,456,2
608,642,462,2
621,747,510,2
591,798,497,2
633,461,538,2
519,315,650,2
398,249,743,2
447,495,687,2
537,397,587,2
644,474,675,2
647,564,733,2
566,532,676,2
584,483,657,2
583,458,655,2
588,478,670,2
571,496,685,2
588,519,706,2
668,525,760,2
824,527,712,2
663,289,590,2
527,375,470,2
348,379,482,2
400,589,449,2
361,404,363,2
542,433,472,2
863,402,1352,2
800,615,546,2
558,416,680,2
567,567,679,2
565,452,646,2
605,525,665,2
603,467,642,2
626,589,726,2
706,811,975,2
745,202,781,2
687,29,443,2
615,164,370,2
567,227,333,2
540,431,419,2
483,339,314,2
534,387,455,2
671,248,725,2
956,848,1133,2
632,422,639,2
560,604,667,2
585,517,620,2
624,483,582,2
628,490,596,2
604,519,606,2
609,491,594,2
613,515,576,2
602,522,573,2
623,511,559,2
651,476,552,2
641,552,563,2
643,493,540,2
661,494,555,2
646,529,555,2
647,494,539,2
688,452,547,2
687,445,545,2
685,453,541,2
687,462,555,2
668,468,572,2
681,463,554,2
704,447,555,2
705,396,539,2
699,425,555,2
689,426,548,2
683,442,579,2
698,447,550,2
715,488,519,2
729,447,495,2
758,373,515,2
703,388,571,2
691,402,579,2
707,429,573,2
699,394,555,2
709,427,563,2
698,392,573,2
711,384,558,2
734,412,541,2
734,400,529,2
713,394,541,2
721,391,544,2
715,401,562,2
712,383,571,2
689,401,563,2
690,424,581,2
697,381,564,2
702,436,577,2
697,411,568,2
696,433,558,2
686,419,559,2
692,463,567,2
683,432,558,2
682,422,553,2
679,479,570,2
665,447,557,2
667,491,559,2
646,432,554,2
653,539,570,2
639,484,561,2
641,498,565,2
636,491,562,2
625,533,572,2
619,511,569,2
619,535,567,2
612,528,572,2
610,533,567,2
611,544,569,2
613,524,566,2
612,546,564,2
613,519,567,2
622,541,558,2
629,513,553,2
628,520,550,2
619,529,560,2
626,513,555,2
629,528,554,2
622,521,551,2
625,522,557,2
621,537,562,2
636,518,553,2
637,514,551,2
639,510,549,2
625,528,552,2
634,531,548,2
630,523,554,2
629,508,555,2
632,534,551,2
638,520,545,2
631,522,542,2
628,524,548,2
618,533,560,2
621,519,569,2
611,525,569,2
614,540,569,2
618,545,560,2
632,490,556,2
637,508,573,2
619,534,554,2
600,522,552,2
609,553,560,2
594,534,571,2
603,521,576,2
606,559,578,2
622,541,558,2
634,531,547,2
636,530,550,2
632,525,551,2
627,527,551,2
637,523,556,2
636,529,564,2
645,524,564,2
649,522,569,2
661,480,565,2
662,455,564,2
653,421,572,2
656,402,579,2
675,452,583,2
656,413,582,2
681,422,595,2
680,426,590,2
683,424,582,2
692,445,601,2
707,477,632,2
807,631,744,2
695,393,682,2
536,559,529,2
617,875,546,2
542,697,676,2
455,819,629,2
490,758,702,2
377,674,672,2
377,673,598,2
397,710,614,2
399,743,607,2
369,708,616,2
334,641,631,2
279,608,626,2
189,658,654,2
93,616,677,2
23,548,663,2
24,523,585,2
241,745,697,2
362,758,673,2
289,632,555,2
236,575,488,2
192,535,541,2
199,574,684,2
0,111,838,2
-209,178,933,2
-275,613,1117,2
-218,531,694,2
12,933,762,2
98,1017,896,2
175,585,875,2
213,775,926,2
151,477,784,2
274,595,894,2
311,564,809,2
337,783,805,2
349,559,870,2
310,604,976,2
277,567,944,2
200,602,748,2
140,793,706,2
42,821,759,2
-27,839,476,2
-29,749,280,2
-33,697,127,2
-35,675,-75,2
50,787,81,2
46,530,-342,2
276,756,-264,2
273,558,-256,2
515,1040,-413,2
536,1248,-370,2
583,998,-286,2
684,1104,-76,2
657,1003,34,2
714,962,85,2
781,1020,193,2
822,663,45,2
829,497,147,2
950,529,181,2
958,603,90,2
951,498,79,2
984,674,113,2
934,668,174,2
885,562,139,2
827,333,118,2
854,459,138,2
831,382,165,2
749,440,164,2
756,432,228,2
714,375,230,2
729,494,227,2
738,556,372,2
722,542,285,2
702,701,352,2
712,656,375,2
664,664,421,2
649,566,408,2
672,476,507,2
635,871,278,2
717,653,396,2
655,442,336,2
707,682,470,2
669,544,452,2
601,478,388,2
665,521,506,2
628,758,463,2
557,629,487,2
602,531,526,2
500,561,448,2
591,602,531,2
637,495,487,2
737,550,602,2
719,593,542,2
692,472,533,2
650,502,499,2
583,655,495,2
549,687,516,2
586,580,564,2
580,378,541,2
634,485,596,2
621,429,575,2
643,458,626,2
640,479,712,2
694,265,651,2
672,435,665,2
686,504,746,2
594,420,712,2
614,476,751,2
613,426,686,2
658,329,687,2
531,485,658,2
497,424,557,2
606,337,584,2
702,325,610,2
712,255,613,2
673,311,583,2
660,413,631,2
678,456,727,2
556,487,728,2
556,503,660,2
668,320,721,2
609,288,500,2
710,360,609,2
648,441,630,2
654,385,676,2
661,391,560,2
673,404,533,2
639,449,496,2
718,592,679,2
729,704,678,2
657,502,630,2
673,400,445,2
734,391,402,2
722,436,457,2
699,480,544,2
599,419,512,2
637,546,626,2
793,714,870,2
721,567,819,2
583,675,828,2
426,-200,85,2
596,620,396,2
578,500,789,2
490,501,709,2
552,364,545,2
676,467,567,2
794,383,649,2
800,263,735,2
892,83,867,2
842,264,946,2
925,505,909,2
793,1034,875,2
539,1407,665,2
276,1249,459,2
190,1335,207,2
116,1121,168,2
80,788,58,2
124,752,157,2
127,598,200,2
177,489,226,2
208,235,170,2
399,200,162,2
560,120,214,2
822,84,166,2
1067,195,22,2
1180,313,-3,2
1210,251,50,2
1113,381,110,2
1191,534,273,2
1121,448,356,2
1035,552,246,2
941,727,227,2
775,676,196,2
745,497,206,2
747,432,224,2
827,388,263,2
761,842,278,2
758,766,244,2
748,754,363,2
793,694,384,2
700,757,298,2
590,736,298,2
677,549,260,2
706,549,343,2
630,459,225,2
559,526,201,2
518,342,194,2
557,535,219,2
556,896,34,2
707,843,274,2
659,922,207,2
1162,133,238,2
762,995,9,2
997,257,177,2
1020,744,236,2
843,595,104,2
933,499,198,2
765,650,207,2
666,972,53,2
596,865,70,2
690,702,167,2
594,649,13,2
630,676,33,2
737,355,154,2
709,639,-15,2
718,500,15,2
806,384,243,2
691,743,307,2
682,573,212,2
757,488,248,2
692,714,201,2
772,591,-12,2
876,542,17,2
802,726,-6,2
844,619,-171,2
938,413,-152,2
934,137,-17,2
844,171,-127,2
901,788,-80,2
760,331,65,2
649,409,53,2
788,390,-8,2
810,507,-10,2
760,445,-86,2
671,181,-46,2
1062,814,-108,2
847,670,0,2
976,744,96,2
778,594,12,2
899,687,108,2
853,682,53,2
851,594,182,2
993,786,196,2
850,341,174,2
823,541,249,2
765,429,231,2
713,351,154,2
668,753,186,2
688,689,347,2
681,323,276,2
685,436,321,2
700,594,366,2
692,585,357,2
687,481,377,2
696,591,386,2
679,594,388,2
671,545,393,2
696,570,399,2
687,591,406,2
698,600,398,2
686,547,385,2
715,534,377,2
746,452,340,2
755,240,276,2
718,346,299,2
727,746,328,2
654,825,67,2
541,754,-79,2
516,641,-180,2
589,947,-300,2
605,875,-193,2
682,820,-123,2
652,706,-220,2
678,521,-238,2
636,454,-298,2
742,544,-352,2
706,549,-403,2
722,551,-481,2
714,620,-430,2
726,705,-360,2
724,636,-369,2
709,888,-273,2
668,766,-273,2
662,558,-408,2
651,547,-332,2
676,637,-315,2
694,577,-400,2
676,551,-355,2
673,574,-304,2
666,520,-350,2
661,516,-337,2
672,551,-328,2
669,422,-322,2
672,436,-402,2
671,434,-475,2
717,386,-516,2
693,385,-622,2
754,500,-636,2
868,625,-461,2
830,500,-461,2
867,434,-582,2
795,336,-664,2
738,290,-551,2
751,343,-495,2
707,375,-494,2
681,378,-488,2
691,289,-417,2
732,200,-267,2
833,135,-385,2
799,197,-432,2
725,273,-456,2
720,358,-502,2
767,322,-504,2
780,264,-511,2
843,368,-675,2
1024,208,-220,2
1018,192,-557,2
946,209,-534,2
832,339,-470,2
885,491,-408,2
844,376,-439,2
785,275,-352,2
770,449,-287,2
668,553,-369,2
632,727,-337,2
624,657,45,2
541,839,-401,2
555,989,-781,2
441,719,-879,2
396,60,-791,2
703,404,-491,2
870,439,-2,2
861,351,171,2
893,603,70,2
852,771,172,2
836,619,106,2
801,479,-71,2
770,657,-48,2
693,663,-98,2
652,798,-79,2
618,420,10,2
810,605,245,2
567,963,-54,2
775,401,233,2
638,656,20,2
705,620,52,2
728,745,45,2
812,559,60,2
786,723,7,2
782,604,5,2
756,673,-2,2
785,515,60,2
830,598,0,2
773,425,-120,2
891,624,-82,2
873,471,-86,2
863,519,-46,2
949,625,-91,2
881,594,-100,2
927,592,-89,2
927,717,-111,2
838,851,-134,2
738,575,-50,2
516,474,178,2
476,458,53,2
831,168,-144,2
722,284,-150,2
865,448,-173,2
764,452,-113,2
756,385,-88,2
750,271,-184,2
895,622,-210,2
1141,674,-236,2
1022,447,-165,2
1038,466,-168,2
933,544,-98,2
829,547,-263,2
852,711,-216,2
710,444,-59,2
596,253,-50,2
736,325,-56,2
645,178,-173,2
893,334,-235,2
1034,406,-226,2
1023,428,-229,2
1005,578,-167,2
879,570,-114,2
790,555,-171,2
837,468,-75,2
822,471,-87,2
790,396,-159,2
850,376,-137,2
852,443,-183,2
884,354,-257,2
823,393,-293,2
901,401,-77,2
944,362,-140,2
856,609,-191,2
912,527,-102,2
882,494,-185,2
871,339,-160,2
884,435,-113,2
903,387,-162,2
855,395,-136,2
841,240,-185,2
834,286,-118,2
865,360,-136,2
850,373,-121,2
886,362,-106,2
915,382,-130,2
1023,430,-31,2
1118,292,47,2
1197,354,118,2
1226,345,159,2
1195,171,-76,2
1035,308,-138,2
932,393,-210,2
923,334,-282,2
936,531,-274,2
896,585,-174,2
803,592,-186,2
670,653,-147,2
580,607,-116,2
425,732,-167,2
376,806,-119,2
371,673,-34,2
385,1195,-180,2
264,880,-39,2
163,368,304,2
343,414,348,2
618,1157,433,2
671,982,382,2
713,515,83,2
510,972,304,2
460,822,187,2
597,739,220,2
495,803,303,2
525,764,272,2
427,858,234,2
426,930,186,2
-42,1227,303,2
454,752,257,2
681,609,208,2
729,692,188,2
201,910,492,2
382,774,550,2
432,893,625,2
235,882,412,2
122,1219,-7,2
459,680,38,2
863,533,196,2
827,510,-42,2
788,616,49,2
656,619,66,2
725,1025,25,2
560,1011,178,2
542,567,76,2
602,697,251,2
634,552,108,2
690,835,133,2
605,729,102,2
697,723,145,2
486,691,276,2
487,886,197,2
546,651,211,2
634,915,142,2
495,672,222,2
694,894,110,2
583,637,144,2
574,808,159,2
540,713,52,2
590,779,313,2
533,856,-8,2
464,755,143,2
571,920,-14,2
399,707,284,2
753,795,248,2
781,508,287,2
778,831,16,2
383,827,204,2
481,878,152,2
677,689,74,2
710,694,67,2
294,989,153,2
826,569,105,2
663,588,133,2
255,1217,101,2
-67,1202,393,2
390,650,340,2
663,860,153,2
802,679,-1,2
715,661,-73,2
660,833,-10,2
608,790,107,2
627,723,98,2
592,803,119,2
567,768,139,2
564,759,193,2
578,830,162,2
564,731,208,2
583,747,342,2
628,682,405,2
594,532,412,2
544,712,500,2
519,682,541,2
480,551,610,2
573,580,563,2
555,518,636,2
603,499,528,2
555,614,672,2
530,563,593,2
516,561,616,2
364,756,561,2
472,666,584,2
535,485,644,2
625,481,578,2
608,487,651,2
529,513,674,2
513,560,647,2
542,598,614,2
461,701,662,2
412,685,604,2
397,451,598,2
416,473,517,2
642,380,810,2
985,59,751,2
688,540,449,2
480,792,585,2
482,607,620,2
467,610,645,2
520,627,606,2
570,567,583,2
585,487,561,2
573,570,573,2
543,589,583,2
537,597,600,2
548,585,592,2
572,580,569,2
559,521,571,2
557,562,602,2
542,576,599,2
538,546,595,2
533,627,587,2
530,588,608,2
532,620,587,2
543,595,579,2
556,577,584,2
537,589,614,2
541,595,552,2
575,523,583,2
577,543,584,2
580,562,548,2
582,539,569,2
565,589,593,2
549,613,589,2
554,533,636,2
567,595,605,2
575,619,651,2
679,573,602,2
570,492,689,2
389,737,720,2
320,754,675,2
332,831,727,2
289,614,598,2
269,643,532,2
351,703,515,2
401,850,513,2
446,874,418,2
466,889,443,2
409,818,412,2
339,841,371,2
225,865,338,2
177,833,314,2
159,906,335,2
165,942,294,2
171,883,443,2
137,922,422,2
139,921,418,2
110,931,302,2
82,1032,316,2
31,791,396,2
4,830,325,2
-42,920,254,2
-73,981,297,2
-131,878,257,2
-154,846,234,2
-190,898,259,2
-207,924,222,2
-235,920,221,2
-266,894,241,2
-265,886,240,2
-256,933,270,2
-249,935,282,2
-230,895,327,2
-216,895,328,2
-186,926,325,2
-141,999,299,2
-109,930,306,2
-121,836,302,2
-111,919,279,2
-83,932,384,2
-189,810,345,2
-160,949,382,2
-286,801,340,2
-268,934,386,2
-270,965,409,2
-302,900,449,2
-321,861,412,2
-330,890,435,2
-349,703,440,2
-386,776,430,2
-358,876,394,2
-390,790,295,2
-299,926,373,2
-316,959,410,2
-346,977,330,2
-268,813,305,2
-16,936,475,2
196,870,533,2
-45,648,691,2
-219,521,746,2
-455,425,505,2
-357,467,583,2
-263,699,598,2
-90,417,662,2
251,199,736,2
207,679,731,2
122,969,592,2
146,1092,573,2
271,474,612,2
379,659,868,2
449,617,830,2
456,463,530,2
452,495,329,2
315,621,109,2
256,970,-251,2
230,1034,-400,2
483,1137,-70,2
627,1057,-4,2
861,1132,209,2
904,896,468,2
840,728,505,2
841,613,477,2
878,577,439,2
818,742,405,2
795,688,293,2
664,661,241,2
665,551,263,2
686,729,287,2
667,743,236,2
698,640,230,2
709,732,186,2
707,812,253,2
675,679,192,2
704,671,150,2
697,620,197,2
618,639,96,2
685,703,170,2
741,612,208,2
690,728,182,2
699,792,185,2
717,698,254,2
707,776,241,2
631,746,213,2
568,672,158,2
666,723,237,2
713,771,284,2
654,762,240,2
552,493,281,2
475,480,302,2
425,538,263,2
464,613,241,2
657,509,215,2
824,975,1,2
957,678,24,2
883,401,24,2
825,394,35,2
774,649,-89,2
744,927,-22,2
676,951,-21,2
676,515,128,2
707,705,0,2
745,568,-95,2
842,713,-177,2
785,464,-59,2
672,487,-100,2
673,675,12,2
707,591,7,2
765,702,-92,2
839,555,-139,2
820,457,-149,2
825,394,-182,2
919,495,-271,2
809,840,-115,2
564,679,-5,2
623,1046,212,2
635,938,197,2
512,669,117,2
888,270,143,2
692,597,-123,2
875,258,173,2
892,797,424,2
618,534,233,2
654,275,231,2
671,480,360,2
798,582,350,2
863,489,278,2
735,519,307,2
773,442,477,2
738,510,363,2
711,419,360,2
874,530,621,2
857,419,321,2
851,386,634,2
867,516,384,2
909,434,405,2
846,417,437,2
938,464,442,2
937,283,402,2
869,380,184,2
879,165,125,2
785,247,19,2
388,713,356,2
483,91,398,2
473,687,573,2
996,558,673,2
898,656,466,2
879,369,205,2
516,152,2,2
564,729,501,2
963,492,316,2
742,636,440,2
866,611,403,2
777,621,473,2
860,519,430,2
623,604,418,2
435,516,320,2
917,639,559,2
817,541,274,2
600,702,583,2
648,504,336,2
471,603,220,2
981,618,581,2
708,593,549,2
789,617,548,2
730,500,443,2
852,586,496,2
843,457,426,2
915,516,362,2
1112,378,513,2
469,801,103,2
492,320,12,2
722,425,446,2
471,612,572,2
721,289,179,2
917,399,266,2
840,480,314,2
732,543,325,2
766,440,331,2
664,519,299,2
707,314,314,2
804,349,498,2
928,165,443,2
1093,549,372,2
1051,1089,381,2
882,948,270,2
846,649,275,2
859,587,381,2
777,412,447,2
690,253,347,2
555,244,369,2
688,490,374,2
688,380,411,2
748,509,487,2
645,323,345,2
633,435,345,2
693,649,557,2
733,437,513,2
694,442,552,2
615,505,483,2
686,323,517,2
752,431,566,2
661,481,471,2
703,477,427,2
699,441,416,2
620,727,355,2
587,719,331,2
637,651,202,2
784,473,237,2
650,654,206,2
666,656,41,2
821,816,29,2
898,700,-11,2
785,739,-28,2
781,563,-22,2
725,344,243,2
656,618,44,2
606,646,120,2
748,661,-38,2
774,700,-94,2
957,721,-121,2
890,434,-24,2
843,644,-51,2
798,475,-21,2
730,464,1,2
726,538,33,2
770,598,-39,2
786,771,-74,2
841,493,-22,2
949,633,-73,2
869,533,-66,2
926,383,18,2
736,781,-58,2
563,10,257,2
689,413,-40,2
932,655,-116,2
873,631,-123,2
663,339,-22,2
885,269,97,2
737,456,-135,2
965,771,-206,2
926,727,-108,2
824,426,-87,2
871,577,-64,2
650,601,-74,2
888,956,-27,2
691,629,-34,2
521,716,-334,2
1050,349,93,2
805,213,-315,2
1126,-5,-261,2
1052,-15,-322,2
1036,357,-253,2
884,591,-77,2
766,833,50,2
413,321,145,2
771,611,-108,2
792,244,-126,2
989,477,-355,2
1035,508,-376,2
821,479,-172,2
768,720,-124,2
689,545,-76,2
678,516,-301,2
970,478,-120,2
887,503,-288,2
768,195,-252,2
951,606,-270,2
703,181,-206,2
953,744,-219,2
625,135,-189,2
969,761,-296,2
735,246,-235,2
977,694,-375,2
636,-48,-207,2
944,781,-275,2
892,405,-320,2
851,267,-404,2
838,402,-201,2
933,345,-436,2
1042,682,-195,2
822,420,25,2
744,440,-319,2
911,375,-254,2
846,432,-361,2
692,355,-453,2
857,224,-233,2
748,175,-346,2
730,278,-122,2
734,339,-284,2
704,608,-321,2
890,1218,84,2
863,149,-371,2
910,1066,-228,2
673,120,-203,2
712,873,-63,2
912,179,-140,2
838,724,-188,2
630,600,-54,2
981,492,-131,2
787,563,-28,2
780,551,15,2
679,750,76,2
924,648,73,2
684,464,82,2
721,487,66,2
568,502,165,2
819,572,179,2
971,440,267,2
523,665,241,2
468,356,212,2
947,577,276,2
1231,678,434,2
736,443,280,2
737,516,348,2
839,537,198,2
743,598,325,2
1016,439,136,2
836,487,303,2
837,414,330,2
843,478,408,2
896,323,286,2
940,232,291,2
856,563,420,2
774,346,316,2
872,178,329,2
1041,-125,209,2
1073,87,305,2
1181,292,315,2
1295,340,411,2
1283,447,398,2
1124,706,367,2
860,798,386,2
617,558,334,2
481,607,343,2
363,610,446,2
336,436,462,2
320,592,347,2
358,746,473,2
282,571,514,2
301,646,366,2
297,945,386,2
180,796,407,2
161,854,286,2
191,999,376,2
153,718,273,2
142,769,161,2
83,1078,388,2
71,686,107,2
-70,769,237,2
-105,1169,238,2
-107,1128,72,2
-178,983,191,2
-129,968,125,2
-19,787,38,2
-28,654,-121,2
147,718,-291,2
242,761,-354,2
338,876,-316,2
372,929,-232,2
475,1179,30,2
515,1213,140,2
804,874,446,2
887,646,718,2
788,803,863,2
459,590,820,2
419,-66,310,2
642,749,386,2
1029,1015,469,2
987,204,-73,2
1007,209,31,2
824,474,236,2
835,463,437,2
866,157,24,2
1075,330,392,2
1189,599,983,2
1154,410,859,2
1154,341,873,2
1224,496,675,2
1062,966,120,2
1145,296,236,2
903,417,451,2
663,1867,64,2
699,1427,-108,2
510,965,-274,2
649,674,-319,2
730,387,-321,2
902,-53,-72,2
859,-209,-185,2
1055,-317,63,2
1647,253,378,2
864,131,1040,2
267,-319,804,2
533,547,679,2
652,-196,873,2
443,-64,789,2
555,-71,898,2
460,-81,960,2
412,21,976,2
430,44,804,2
446,146,842,2
364,225,985,2
379,380,688,2
458,326,927,2
520,126,813,2
830,350,612,2
683,238,663,2
636,180,785,2
366,328,903,2
625,326,777,2
400,456,867,2
544,401,851,2
594,377,622,2
769,376,734,2
771,305,462,2
811,341,465,2
902,292,477,2
845,463,416,2
755,311,424,2
788,375,452,2
767,302,608,2
721,339,574,2
783,271,542,2
774,301,509,2
741,365,505,2
758,360,514,2
760,410,549,2
657,450,542,2
736,441,585,2
707,471,634,2
639,557,632,2
510,501,687,2
630,437,672,2
586,499,717,2
597,632,598,2
697,479,553,2
762,390,549,2
664,449,587,2
667,407,666,2
704,355,564,2
659,509,593,2
589,478,660,2
645,458,587,2
509,454,657,2
499,515,623,2
779,270,488,2
921,179,364,2
841,275,538,2
609,479,784,2
482,686,818,2
514,666,662,2
561,582,552,2
819,308,493,2
657,282,625,2
825,303,626,2
615,320,571,2
833,326,609,2
602,381,623,2
540,543,721,2
722,361,662,2
499,353,667,2
727,219,684,2
590,241,664,2
709,302,586,2
690,125,412,2
826,362,807,2
671,152,533,2
829,238,793,2
558,161,637,2
731,208,795,2
684,154,750,2
679,260,833,2
644,287,931,2
520,317,874,2
746,301,684,2
1179,310,660,2
1022,-6,264,2
1394,14,263,2
1175,37,795,2
688,74,622,2
463,65,691,2
204,-63,761,2
-121,-133,535,2
-205,-242,419,2
-345,-217,262,2
-539,-271,223,2
-193,161,1048,2
1315,742,823,2
-38,-1332,-1092,2
-1773,998,931,2
993,829,1097,2
983,-667,-391,2
1004,1334,704,2
134,73,1480,2
457,555,291,2
769,96,645,2
536,8,779,2
281,539,565,2
641,163,887,2
638,107,823,2
539,186,888,2
332,174,1036,2
407,206,888,2
77,438,917,2
105,518,979,2
651,464,1024,2
419,433,748,2
601,488,976,2
849,321,499,2
509,565,724,2
335,442,912,2
539,290,651,2
665,167,704,2
681,97,698,2
390,312,800,2
408,299,958,2
554,513,698,2
376,419,860,2
494,175,805,2
782,362,616,2
713,384,756,2
629,106,586,2
831,281,655,2
490,271,802,2
481,242,908,2
567,158,803,2
593,409,734,2
586,290,631,2
685,117,779,2
712,547,705,2
567,439,891,2
475,-408,794,2
799,715,725,2
846,255,472,2
810,-18,478,2
580,-101,571,2
567,162,1034,2
347,144,929,2
496,490,839,2
537,512,832,2
616,167,722,2
584,220,759,2
693,139,534,2
725,357,625,2
528,479,875,2
333,318,1049,2
151,404,1142,2
392,500,996,2
508,276,784,2
615,277,730,2
662,295,729,2
474,355,706,2
683,411,784,2
339,309,819,2
331,597,910,2
309,380,824,2
465,228,881,2
397,325,895,2
413,313,918,2
413,260,932,2
650,112,743,2
688,286,576,2
609,424,624,2
652,294,707,2
550,527,783,2
570,325,757,2
543,99,870,2
606,131,891,2
484,204,770,2
533,269,761,2
348,-5,1046,2
583,303,823,2
491,-224,714,2
844,349,489,2
901,102,500,2
535,349,939,2
557,234,864,2
382,305,987,2
533,133,814,2
475,234,826,2
574,190,801,2
384,174,901,2
521,302,861,2
573,213,761,2
658,118,660,2
560,83,685,2
719,131,767,2
650,152,847,2
629,162,746,2
803,220,598,2
865,207,608,2
747,69,714,2
691,243,717,2
618,137,710,2
668,199,851,2
612,240,645,2
663,325,906,2
532,90,650,2
606,283,884,2
597,193,865,2
658,231,747,2
494,34,782,2
557,-1,708,2
506,258,872,2
490,98,736,2
528,159,750,2
549,140,983,2
500,160,838,2
425,293,973,2
470,206,785,2
537,329,814,2
492,165,678,2
739,229,784,2
575,248,900,2
532,260,771,2
722,140,694,2
476,319,781,2
593,238,735,2
565,273,840,2
470,240,907,2
345,339,987,2
404,406,919,2
484,324,852,2
505,330,794,2
382,332,912,2
550,287,758,2
458,306,880,2
531,104,754,2
327,93,888,2
455,198,951,2
424,274,780,2
550,241,744,2
727,358,713,2
440,364,784,2
692,142,841,2
601,190,576,2
779,25,645,2
901,-181,508,2
742,454,962,2
496,66,765,2
360,132,877,2
476,-84,907,2
573,246,910,2
415,347,749,2
698,396,600,2
606,-10,744,2
624,26,792,2
741,162,820,2
413,247,868,2
581,510,888,2
577,474,785,2
680,434,936,2
602,153,724,2
549,475,841,2
641,152,649,2
646,387,674,2
623,459,744,2
501,264,630,2
495,336,837,2
512,317,651,2
506,190,859,2
487,160,829,2
231,160,1039,2
512,235,647,2
495,185,868,2
459,104,772,2
704,212,789,2
721,138,754,2
768,148,698,2
327,-38,635,2
632,567,1017,2
522,-59,743,2
513,208,845,2
788,365,842,2
596,151,646,2
416,473,1046,2
500,254,835,2
526,86,780,2
550,247,664,2
522,229,774,2
628,148,545,2
624,321,919,2
602,124,751,2
735,287,867,2
798,68,824,2
613,52,795,2
531,165,828,2
493,245,723,2
683,257,840,2
451,-4,792,2
638,598,737,2
526,252,826,2
654,174,793,2
527,210,744,2
558,120,636,2
662,99,504,2
736,144,642,2
849,105,663,2
912,223,814,2
469,28,676,2
663,256,707,2
701,173,735,2
768,147,789,2
719,160,735,2
616,427,738,2
617,397,919,2
597,253,708,2
602,532,741,2
705,105,671,2
366,325,694,2
546,166,602,2
823,201,705,2
789,208,724,2
766,256,770,2
563,106,734,2
647,195,649,2
650,184,751,2
570,155,694,2
993,108,784,2
418,375,799,2
441,345,873,2
500,359,759,2
573,87,647,2
555,243,726,2
768,143,672,2
596,150,583,2
616,207,730,2
826,122,698,2
597,109,684,2
725,95,864,2
612,84,719,2
602,180,681,2
595,254,653,2
430,219,739,2
885,191,764,2
659,169,678,2
542,334,854,2
617,241,774,2
687,144,773,2
686,206,603,2
574,258,759,2
582,201,702,2
582,307,752,2
737,109,758,2
645,214,671,2
559,264,721,2
632,231,679,2
714,208,680,2
664,160,607,2
606,244,600,2
956,289,684,2
727,161,618,2
493,307,836,2
708,221,842,2
497,275,904,2
692,291,831,2
697,268,802,2
715,183,868,2
470,40,693,2
659,402,536,2
985,291,787,2
882,107,518,2
656,326,907,2
487,305,815,2
569,274,942,2
465,298,698,2
661,508,688,2
915,463,632,2
1027,246,710,2
326,434,812,2
439,413,778,2
366,333,791,2
1532,233,553,2
-133,200,591,2
670,975,898,2
698,383,788,2
274,339,723,2
510,219,777,2
716,-266,490,2
722,181,565,2
579,203,715,2
983,261,676,2
425,70,948,2
511,315,1028,2
423,339,921,2
1187,492,611,2
-103,341,913,2
975,644,919,2
605,300,1033,2
515,518,980,2
205,422,830,2
793,646,536,2
644,178,131,2
405,401,982,2
841,27,745,2
25,230,1158,2
792,489,706,2
439,355,1003,2
286,450,1039,2
60,718,1149,2
827,596,1197,2
605,408,349,2
321,694,1018,2
937,430,366,2
887,175,184,2
814,214,186,2
700,88,818,2
651,178,948,2
130,300,1202,2
691,396,704,2
432,378,991,2
485,355,800,2
560,181,681,2
801,2,610,2
561,282,840,2
904,282,440,2
289,64,685,2
560,523,1023,2
1115,663,744,2
593,151,487,2
427,667,906,2
760,523,257,2
298,330,986,2
303,310,940,2
254,-10,1119,2
318,-67,783,2
440,216,886,2
539,499,405,2
632,817,673,2
564,879,729,2
874,779,806,2
575,209,1101,2
491,167,1018,2
676,137,610,2
575,-61,462,2
637,317,23,2
1013,446,195,2
661,301,804,2
641,294,1337,2
154,91,1037,2
666,236,717,2
615,275,637,2
696,312,595,2
504,299,743,2
856,179,404,2
111,0,927,2
602,433,1360,2
581,446,400,2
617,450,688,2
910,582,444,2
896,207,820,2
746,375,651,2
545,544,562,2
347,341,576,2
220,122,1000,2
629,267,707,2
637,276,935,2
440,-79,768,2
558,100,872,2
487,139,705,2
653,367,678,2
715,655,725,2
403,973,913,2
366,854,1091,2
575,505,846,2
534,69,950,2
715,232,642,2
980,292,454,2
811,282,527,2
308,-89,238,2
961,37,358,2
864,133,727,2
655,494,1033,2
435,420,913,2
550,524,684,2
553,469,593,2
588,534,574,2
509,151,401,2
784,183,668,2
525,116,614,2
114,126,991,2
814,141,809,2
898,185,500,2
546,129,817,2
521,459,756,2
826,516,500,2
478,376,776,2
744,481,630,2
850,230,542,2
785,354,738,2
496,654,592,2
313,285,500,2
603,326,776,2
708,229,758,2
459,107,726,2
569,80,926,2
522,168,529,2
627,208,797,2
746,242,400,2
508,430,696,2
759,558,664,2
447,324,718,2
405,360,1080,2
439,246,733,2
547,420,668,2
617,190,711,2
824,379,558,2
646,387,655,2
816,495,610,2
963,543,556,2
1037,397,348,2
630,108,612,2
357,-214,556,2
908,74,362,2
609,177,644,2
754,230,349,2
854,242,514,2
816,356,706,2
859,429,664,2
690,298,682,2
448,296,846,2
468,156,768,2
599,90,533,2
728,30,704,2
761,88,612,2
935,-14,566,2
774,-3,615,2
999,287,319,2
913,507,375,2
949,593,603,2
573,438,825,2
674,393,795,2
477,497,867,2
738,467,642,2
715,369,387,2
597,232,690,2
570,99,635,2
509,208,785,2
625,100,619,2
687,232,563,2
795,401,699,2
656,370,785,2
869,528,738,2
989,434,305,2
921,596,692,2
988,547,563,2
829,565,508,2
674,-3,787,2
638,-48,307,2
477,-23,578,2
723,-22,585,2
828,485,492,2
636,316,698,2
566,508,828,2
313,-89,885,2
576,-24,992,2
821,266,495,2
940,481,401,2
826,722,789,2
818,724,791,2
623,283,976,2
475,-98,538,2
653,289,359,2
813,179,513,2
633,346,757,2
612,156,842,2
537,347,748,2
744,603,719,2
914,567,354,2
725,1113,776,2
686,787,1169,2
80,144,1106,2
408,50,845,2
635,-284,228,2
1149,-169,29,2
828,-60,531,2
1040,315,316,2
908,571,601,2
575,437,875,2
717,577,960,2
528,429,891,2
432,137,808,2
545,254,675,2
706,341,626,2
800,241,450,2
561,471,681,2
449,477,956,2
718,108,737,2
585,152,734,2
630,32,579,2
823,289,639,2
773,287,594,2
657,193,563,2
554,327,923,2
547,330,820,2
749,368,810,2
668,257,668,2
680,62,671,2
883,11,555,2
712,19,616,2
763,302,630,2
562,361,730,2
692,396,881,2
617,299,613,2
737,411,733,2
624,345,838,2
667,344,546,2
744,358,668,2
593,350,637,2
744,350,681,2
575,284,709,2
509,191,843,2
560,312,937,2
443,232,813,2
691,-15,731,2
533,183,640,2
558,265,407,2
801,236,541,2
903,227,465,2
779,88,746,2
769,307,711,2
419,157,656,2
853,109,545,2
1097,153,537,2
964,308,699,2
872,92,621,2
654,325,666,2
688,218,887,2
665,282,628,2
646,289,679,2
706,338,717,2
815,207,476,2
803,203,734,2
781,308,667,2
628,296,761,2
677,64,636,2
791,236,574,2
773,309,604,2
879,439,577,2
850,460,541,2
580,447,524,2
621,213,743,2
619,27,776,2
971,165,668,2
619,382,558,2
691,387,591,2
703,330,525,2
1105,412,657,2
930,277,470,2
373,345,589,2
854,402,620,2
772,184,659,2
697,91,464,2
760,116,550,2
758,45,571,2
741,83,585,2
452,289,738,2
697,427,697,2
682,517,864,2
1048,1,520,2
681,129,794,2
205,229,1035,2
705,5,400,2
926,125,337,2
521,173,745,2
630,573,973,2
724,-136,469,2
824,368,1014,2
680,554,261,2
841,783,558,2
779,195,512,2
552,366,600,2
719,426,969,2
850,416,716,2
505,620,908,2
879,462,660,2
669,449,562,2
201,214,863,2
613,102,690,2
797,399,595,2
730,191,584,2
684,421,771,2
240,452,859,2
619,376,827,2
405,446,809,2
753,289,717,2
685,330,806,2
414,341,727,2
381,319,652,2
656,301,540,2
564,251,782,2
472,63,378,2
655,31,322,2
663,183,485,2
641,382,697,2
548,572,912,2
150,262,741,2
1118,874,1132,2
851,29,867,2
673,53,711,2
369,793,899,2
706,309,450,2
841,163,514,2
736,316,631,2
572,236,595,2
540,428,732,2
714,417,616,2
807,210,533,2
721,219,528,2
728,381,560,2
624,282,645,2
473,399,780,2
296,-16,1114,2
341,710,1264,2
1154,271,635,2
750,681,584,2
633,781,393,2
496,471,495,2
625,281,787,2
722,108,789,2
609,-2,682,2
676,319,505,2
330,373,973,2
367,359,838,2
493,385,1057,2
760,104,780,2
577,327,576,2
605,349,442,2
580,38,736,2
491,287,697,2
554,369,736,2
579,360,797,2
575,508,823,2
468,404,833,2
499,432,713,2
120,185,612,2
571,599,801,2
962,170,850,2
502,448,926,2
230,32,607,2
1344,753,949,2
781,-139,414,2
-583,775,254,2
1496,334,833,2
-33,353,1010,2
1029,261,695,2
-41,307,1014,2
973,494,750,2
312,392,597,2
143,198,1101,2
1307,751,356,2
215,544,1031,2
585,108,918,2
189,293,866,2
590,102,249,2
885,107,204,2
640,556,1042,2
956,131,114,2
567,286,1038,2
503,249,875,2
632,260,737,2
665,113,724,2
518,377,605,2
709,307,736,2
550,287,715,2
866,209,793,2
503,50,753,2
692,446,644,2
496,342,782,2
491,524,865,2
585,413,870,2
540,610,804,2
501,104,777,2
557,318,572,2
680,214,776,2
550,243,700,2
681,463,730,2
389,141,530,2
618,348,657,2
807,112,659,2
661,398,720,2
785,173,825,2
490,201,725,2
715,284,706,2
402,202,631,2
740,437,673,2
530,68,509,2
847,386,834,2
737,75,533,2
737,283,759,2
628,119,515,2
299,38,587,2
1666,434,759,2
50,-218,417,2
726,586,777,2
763,237,853,2
566,229,655,2
700,244,689,2
818,430,757,2
629,-203,504,2
359,796,789,2
1202,89,370,2
629,582,854,2
910,154,818,2
635,129,377,2
732,275,456,2
583,303,588,2
921,169,508,2
506,189,637,2
857,196,542,2
945,161,687,2
708,414,707,2
722,304,678,2
731,405,700,2
719,277,729,2
695,48,491,2
796,65,472,2
732,204,596,2
704,-177,497,2
735,-93,520,2
799,-61,691,2
722,-191,636,2
713,42,641,2
785,-65,651,2
571,124,605,2
920,95,624,2
824,141,631,2
571,-23,487,2
934,349,664,2
759,-214,425,2
816,264,725,2
895,-85,673,2
756,41,489,2
749,106,538,2
868,130,697,2
832,298,714,2
613,273,817,2
938,102,706,2
553,282,760,2
661,225,736,2
742,11,624,2
804,320,624,2
923,-30,559,2
566,174,521,2
989,215,640,2
830,22,615,2
280,162,582,2
1126,245,364,2
614,-81,849,2
732,525,383,2
1152,-79,769,2
750,272,886,2
463,367,331,2
574,-48,571,2
599,376,425,2
758,6,432,2
827,180,878,2
1139,-155,657,2
555,250,541,2
688,375,394,2
757,167,467,2
782,88,517,2
1335,-128,761,2
705,6,738,2
311,201,337,2
828,141,306,2
818,226,337,2
1310,-349,703,2
759,435,879,2
680,-139,930,2
566,142,138,2
903,-61,652,2
1407,221,414,2
87,63,1047,2
709,542,20,2
849,-423,896,2
906,220,587,2
626,-87,720,2
720,337,423,2
785,93,587,2
1083,-11,388,2
680,251,808,2
732,49,471,2
938,55,565,2
791,106,719,2
598,210,660,2
895,99,546,2
818,152,505,2
670,332,571,2
728,139,539,2
785,125,570,2
981,97,527,2
898,29,514,2
499,172,591,2
718,-10,421,2
843,115,498,2
828,7,695,2
921,-31,506,2
768,33,680,2
1056,11,344,2
797,41,531,2
618,170,660,2
973,90,396,2
760,43,715,2
791,104,559,2
783,49,508,2
824,188,579,2
904,-1,469,2
858,83,528,2
788,111,648,2
911,83,593,2
775,105,590,2
918,-60,511,2
646,116,737,2
826,184,541,2
770,34,597,2
726,110,543,2
599,284,487,2
771,177,557,2
1287,-53,703,2
598,209,698,2
738,64,690,2
634,165,423,2
806,135,393,2
677,46,774,2
493,159,831,2
975,448,499,2
808,-36,690,2
1005,16,647,2
308,122,514,2
706,453,674,2
842,367,604,2
795,-238,1092,2
648,75,872,2
573,-10,567,2
723,191,624,2
531,190,808,2
582,299,830,2
554,143,689,2
564,292,572,2
1012,288,579,2
852,-63,798,2
652,72,835,2
668,253,705,2
603,91,614,2
645,93,615,2
467,32,815,2
650,148,799,2
608,58,882,2
704,233,790,2
629,7,637,2
854,208,505,2
428,302,580,2
803,145,916,2
431,362,795,2
847,116,753,2
532,419,729,2
674,-35,716,2
688,319,834,2
637,-22,855,2
633,157,830,2
359,283,769,2
552,2,733,2
408,524,684,2
755,0,860,2
680,132,878,2
807,38,737,2
687,225,494,2
670,122,661,2
694,-92,469,2
425,402,501,2
642,-84,754,2
476,266,848,2
890,139,917,2
956,104,593,2
436,101,574,2
693,561,892,2
629,137,934,2
470,-44,897,2
741,182,740,2
609,122,536,2
1021,257,772,2
703,199,818,2
419,194,907,2
450,-35,839,2
548,264,807,2
572,142,711,2
591,257,756,2
185,33,525,2
610,11,606,2
1102,-158,1142,2
1788,-430,593,2
479,328,747,2
122,399,980,2
174,206,764,2
237,43,707,2
635,63,1074,2
596,109,792,2
1167,232,297,2
932,-126,672,2
629,346,1018,2
364,-173,631,2
324,46,595,2
453,140,904,2
669,-402,755,2
607,411,1039,2
605,365,707,2
764,343,848,2
693,54,817,2
565,190,948,2
526,8,723,2
537,129,633,2
525,76,647,2
552,60,778,2
781,239,862,2
592,23,879,2
334,101,959,2
613,139,800,2
678,91,672,2
547,-93,741,2
531,159,765,2
539,-39,757,2
715,60,746,2
720,-12,886,2
594,40,831,2
679,127,867,2
508,39,805,2
557,322,949,2
934,-66,726,2
512,514,833,2
718,194,991,2
208,232,700,2
220,-65,636,2
342,-391,922,2
632,635,1430,2
238,328,528,2
566,106,533,2
916,98,726,2
445,-429,474,2
139,394,964,2
517,215,744,2
677,335,876,2
796,104,688,2
595,-101,501,2
756,104,873,2
607,-131,714,2
493,170,894,2
380,84,881,2
392,286,691,2
830,175,765,2
549,411,816,2
326,416,1083,2
210,243,988,2
760,203,816,2
680,157,704,2
700,365,846,2
575,317,804,2
678,472,995,2
378,-142,878,2
367,422,932,2
367,216,855,2
536,506,764,2
158,381,995,2
204,415,914,2
83,162,720,2
490,429,1039,2
444,281,637,2
865,644,653,2
432,105,660,2
568,263,806,2
334,-21,760,2
847,253,874,2
168,-65,688,2
614,233,774,2
532,262,827,2
278,132,1007,2
635,175,856,2
432,514,740,2
271,321,963,2
379,397,886,2
619,103,710,2
767,176,575,2
631,-58,795,2
416,302,839,2
486,216,930,2
259,355,1034,2
98,108,929,2
476,389,954,2
533,156,906,2
469,293,848,2
371,348,831,2
590,190,725,2
468,219,908,2
616,341,721,2
342,408,732,2
435,96,859,2
348,367,686,2
613,12,984,2
289,326,886,2
682,94,780,2
483,581,830,2
676,292,740,2
330,269,796,2
495,214,1129,2
683,116,689,2
299,455,738,2
603,352,905,2
274,152,825,2
191,218,972,2
521,197,849,2
337,105,807,2
529,28,875,2
649,66,791,2
441,-88,926,2
547,220,948,2
453,99,804,2
314,137,859,2
593,12,808,2
489,146,890,2
696,248,759,2
411,-12,866,2
577,79,1033,2
360,52,725,2
668,-114,830,2
653,39,873,2
423,369,757,2
770,19,791,2
350,-49,995,2
541,-154,688,2
739,254,655,2
795,237,595,2
588,134,1021,2
353,74,1082,2
709,192,735,2
440,-88,712,2
753,276,809,2
576,88,808,2
635,263,754,2
628,42,764,2
491,357,964,2
474,233,680,2
651,-98,760,2
817,127,712,2
420,-136,727,2
712,584,731,2
866,-628,709,2
35,316,570,2
1615,292,812,2
-202,-327,1005,2
1178,402,547,2
247,-78,695,2
986,133,931,2
381,-46,819,2
441,-399,989,2
521,1030,291,2
1101,-778,625,2
-70,736,778,2
1309,-160,692,2
654,-100,693,2
425,561,785,2
892,-123,768,2
225,110,614,2
1065,257,871,2
100,137,839,2
1279,292,729,2
531,49,570,2
426,88,944,2
773,204,745,2
620,145,711,2
1134,-150,569,2
123,969,1029,2
586,-40,766,2
235,-159,749,2
766,817,799,2
116,-242,913,2
736,314,1034,2
865,273,580,2
395,158,933,2
494,-34,673,2
654,334,924,2
197,128,541,2
896,326,470,2
269,-150,627,2
822,367,1401,2
-365,147,1123,2
28,149,1030,2
1625,169,530,2
-430,698,1006,2
1824,-291,57,2
-23,59,1043,2
-56,330,204,2
652,-289,1032,2
-122,-198,991,2
272,611,1454,2
-331,29,959,2
1163,599,1339,2
883,210,-184,2
179,976,1245,2
363,-243,620,2
-317,268,767,2
1135,-84,767,2
-173,230,896,2
758,350,1233,2
-222,376,1101,2
938,157,619,2
799,169,789,2
746,199,595,2
600,213,500,2
382,329,976,2
-140,347,1149,2
560,-183,1091,2
-146,185,1361,2
590,334,895,2
431,677,849,2
777,427,735,2
52,240,763,2
516,298,876,2
20,299,332,2
665,280,807,2
-384,200,1288,2
1018,489,1008,2
-58,-369,884,2
1505,195,468,2
634,132,762,2
512,445,769,2
652,215,899,2
-175,38,1235,2
-290,107,1259,2
503,416,1167,2
80,112,986,2
1045,1113,1018,2
458,-206,462,2
556,718,774,2
99,19,568,2
777,559,563,2
-346,366,1158,2
689,24,1132,2
17,495,756,2
1243,-281,631,2
775,484,878,2
833,162,555,2
-422,140,951,2
478,178,569,2
1111,-539,653,2
-885,1156,1292,2
713,-732,792,2
-102,1659,1317,2
685,-543,237,2
749,606,560,2
-272,204,719,2
1034,491,586,2
219,77,293,2
-508,480,1593,2
560,23,890,2
385,177,904,2
1459,-57,631,2
415,315,746,2
410,306,748,2
386,250,1058,2
79,-392,1108,2
-50,456,1293,2
1148,320,418,2
909,639,749,2
907,297,982,2
289,180,441,2
83,498,922,2
145,476,498,2
869,395,571,2
-430,230,1212,2
732,131,1093,2
1016,46,533,2
648,60,655,2
1064,190,491,2
-90,328,1080,2
221,104,1157,2
-3,-127,1190,2
195,437,1146,2
906,360,599,2
966,700,691,2
563,182,712,2
104,132,529,2
384,302,885,2
269,273,886,2
633,645,1270,2
-35,-71,1080,2
937,627,539,2
330,44,932,2
517,432,634,2
711,-71,590,2
192,-47,861,2
258,-27,976,2
374,-306,1349,2
1100,678,827,2
161,431,875,2
903,-128,425,2
10,980,462,2
892,-262,910,2
357,686,914,2
159,-418,754,2
665,-49,917,2
753,198,298,2
888,1026,1093,2
355,-49,566,2
705,275,946,2
328,-279,767,2
-23,417,294,2
1449,63,646,2
-435,1098,1058,2
478,-829,765,2
-67,1694,284,2
312,-767,1198,2
939,946,293,2
453,60,940,2
807,205,644,2
386,-103,891,2
805,450,759,2
438,50,649,2
778,379,775,2
763,19,839,2
494,163,496,2
763,-4,1080,2
777,95,882,2
394,307,838,2
909,272,1046,2
173,211,666,2
606,344,894,2
792,381,929,2
220,-35,695,2
1065,612,839,2
-333,38,593,2
1352,473,1067,2
-513,268,688,2
840,342,1080,2
-90,414,819,2
930,-62,242,2
926,835,1049,2
-115,360,816,2
474,-285,639,2
68,140,824,2
726,262,359,2
1359,437,738,2
524,32,379,2
449,444,1195,2
-553,-48,977,2
1395,690,338,2
-210,-272,966,2
970,-124,374,2
33,429,785,2
1783,173,421,2
864,543,857,2
131,-706,906,2
338,1072,1653,2
26,76,825,2
606,308,637,2
162,130,972,2
1471,287,-4,2
1009,704,1056,2
418,-449,655,2
439,748,819,2
20,-53,1127,2
331,571,437,2
1249,315,1024,2
593,-252,239,2
604,1164,1047,2
590,-716,884,2
655,901,538,2
576,-398,1179,2
401,594,668,2
870,522,985,2
844,-320,586,2
520,315,572,2
417,-56,601,2
568,712,895,2
790,19,218,2
192,321,960,2
934,206,646,2
766,586,678,2
751,-321,353,2
381,634,919,2
695,96,514,2
428,92,624,2
1004,188,820,2
519,-23,517,2
747,342,504,2
791,232,749,2
388,-51,632,2
892,101,750,2
584,20,723,2
698,107,519,2
665,393,952,2
678,-311,536,2
826,456,818,2
806,-84,685,2
676,416,867,2
768,286,946,2
418,-77,620,2
747,814,1153,2
818,-356,505,2
774,687,834,2
453,197,821,2
684,276,654,2
525,259,999,2
825,23,525,2
367,318,826,2
864,349,635,2
470,287,649,2
865,115,858,2
480,225,778,2
599,32,719,2
633,471,814,2
663,311,708,2
360,110,815,2
757,279,649,2
586,236,741,2
762,120,666,2
422,667,925,2
512,-145,568,2
687,547,922,2
670,-177,423,2
472,462,996,2
691,165,689,2
848,1,642,2
382,363,983,2
648,-33,622,2
565,248,929,2
979,194,632,2
255,103,485,2
87,490,950,2
964,167,777,2
1119,-58,635,2
708,-12,617,2
-194,414,909,2
752,345,907,2
1011,187,647,2
608,93,722,2
336,360,1014,2
602,120,635,2
707,6,656,2
770,484,932,2
659,-162,541,2
246,519,917,2
915,110,657,2
591,-47,630,2
646,455,1066,2
555,-276,473,2
853,533,905,2
649,80,750,2
825,239,1210,2
706,64,504,2
800,346,905,2
707,170,670,2
234,573,719,2
673,11,905,2
786,241,668,2
745,125,685,2
285,422,922,2
859,297,635,2
349,142,784,2
477,282,773,2
805,98,740,2
512,180,731,2
763,357,726,2
442,179,735,2
518,181,902,2
836,82,525,2
581,115,714,2
713,340,771,2
641,231,649,2
297,-125,816,2
521,212,812,2
1548,-183,613,2
194,725,1114,2
-119,-115,554,2
1581,540,381,2
-195,711,1226,2
877,-561,275,2
148,1037,1206,2
851,-96,399,2
862,269,538,2
293,-59,956,2
656,185,582,2
577,344,842,2
581,126,652,2
1000,134,700,2
183,148,1098,2
519,312,498,2
914,211,996,2
300,96,491,2
782,525,804,2
434,56,874,2
565,72,581,2
1027,240,873,2
445,121,468,2
383,879,1388,2
1599,-596,436,2
-676,876,1040,2
483,13,442,2
9,328,952,2
1047,-449,115,2
1616,620,943,2
643,-417,476,2
70,612,821,2
351,256,650,2
843,487,894,2
923,-184,1012,2
1310,202,810,2
-538,211,1078,2
794,416,112,2
135,692,1129,2
1575,-522,110,2
578,225,257,2
242,86,927,2
775,0,470,2
902,790,1094,2
1516,-775,157,2
-767,1018,1171,2
645,-6,481,2
0,1087,1746,2
816,-490,-9,2
1129,687,1186,2
305,-86,700,2
61,-46,-65,2
1388,650,1271,2
1040,-744,-274,2
995,690,968,2
149,-285,1049,2
477,660,1081,2
340,-882,-134,2
1046,1628,1250,2
183,-1148,-346,2
-141,1819,1706,2
961,-1062,-275,2
-1034,1325,742,2
1272,-794,-21,2
489,1134,1066,2
1488,-380,-111,2
1140,432,967,2
-118,-482,834,2
378,1023,909,2
229,-480,1017,2
353,321,761,2
1366,-152,524,2
435,880,913,2
535,-64,588,2
704,183,768,2
403,-1,678,2
931,535,606,2
185,-154,870,2
668,435,775,2
757,48,552,2
409,524,1203,2
325,-168,462,2
1243,652,1152,2
727,-212,266,2
-114,592,1072,2
1331,-379,427,2
42,479,1214,2
1201,8,144,2
373,169,957,2
723,316,612,2
847,-88,500,2
526,87,747,2
557,144,1047,2
755,131,717,2
445,-141,660,2
826,338,770,2
1099,447,633,2
406,302,958,2
502,-36,812,2
825,476,928,2
457,64,706,2
948,23,695,2
688,356,658,2
754,471,1088,2
337,187,802,2
629,287,741,2
527,263,764,2
743,414,676,2
459,-381,639,2
808,1017,1012,2
542,-530,416,2
376,1168,827,2
841,-892,497,2
536,1236,721,2
549,-554,581,2
803,844,1012,2
337,-197,759,2
1155,133,666,2
-224,245,508,2
1463,695,793,2
-319,-379,692,2
1279,673,426,2
284,-320,944,2
1016,959,935,2
174,-933,306,2
611,1201,701,2
372,-653,814,2
1001,754,681,2
485,-418,534,2
764,777,858,2
623,-232,826,2
740,175,518,2
447,542,968,2
633,50,714,2
331,435,768,2
1248,-220,507,2
206,480,793,2
934,83,777,2
228,396,866,2
1124,-228,569,2
258,261,797,2
1010,356,833,2
447,46,500,2
700,231,894,2
763,12,691,2
666,297,793,2
722,163,737,2
800,107,769,2
731,212,652,2
292,79,712,2
254,262,689,2
1119,169,748,2
736,44,673,2
792,242,545,2
572,-111,663,2
706,252,914,2
590,-81,600,2
722,490,942,2
918,-74,732,2
430,-203,628,2
752,401,653,2
701,-149,840,2
815,67,602,2
597,109,612,2
530,236,828,2
804,25,598,2
698,-81,647,2
675,169,910,2
749,172,708,2
471,193,749,2
674,-37,739,2
738,119,635,2
760,176,579,2
802,111,768,2
652,116,671,2
638,198,677,2
614,-15,660,2
959,186,620,2
711,-93,629,2
780,275,796,2
441,-130,789,2
815,156,856,2
694,256,793,2
538,446,777,2
540,22,654,2
813,57,828,2
503,307,590,2
808,96,594,2
524,223,736,2
622,-55,383,2
1355,283,786,2
14,212,781,2
803,25,953,2
297,134,806,2
858,30,676,2
543,207,613,2
821,148,670,2
582,86,955,2
752,46,654,2
581,156,541,2
700,-53,640,2
706,48,685,2
966,174,682,2
574,-101,794,2
696,336,985,2
627,-36,710,2
455,166,718,2
813,116,700,2
868,-49,631,2
482,80,614,2
697,-1,694,2
525,28,638,2
889,239,787,2
588,-188,632,2
577,317,825,2
1164,-193,599,2
254,-9,774,2
670,162,622,2
872,-15,832,2
716,47,682,2
757,54,622,2
703,149,731,2
607,58,753,2
851,-45,661,2
632,111,708,2
728,316,843,2
617,28,679,2
611,187,711,2
964,79,691,2
305,-50,805,2
696,277,471,2
696,184,770,2
547,195,769,2
745,-134,571,2
563,173,702,2
471,147,726,2
998,-31,727,2
475,-89,566,2
678,364,861,2
724,-38,731,2
705,22,785,2
647,-15,611,2
728,220,829,2
779,358,632,2
314,-187,849,2
574,57,726,2
798,303,826,2
940,-187,557,2
455,-164,581,2
920,415,574,2
715,98,670,2
828,11,661,2
499,258,921,2
823,172,713,2
511,-51,600,2
780,212,536,2
887,154,442,2
823,3,703,2
921,14,648,2
804,-24,642,2
745,7,525,2
731,58,557,2
916,56,530,2
726,78,751,2
893,242,693,2
627,251,626,2
1155,-55,585,2
500,247,618,2
544,223,612,2
1194,-128,567,2
540,165,749,2
858,150,782,2
940,-93,656,2
519,90,456,2
598,215,697,2
998,-258,575,2
794,219,701,2
804,184,677,2
555,87,761,2
774,120,683,2
912,71,582,2
300,194,662,2
1062,115,597,2
693,215,403,2
775,196,554,2
763,16,451,2
854,144,734,2
1120,102,552,2
870,27,525,2
337,53,569,2
1185,-9,507,2
776,75,594,2
931,91,531,2
638,42,445,2
871,79,755,2
1139,12,513,2
897,8,294,2
518,89,757,2
1230,-76,558,2
399,132,661,2
590,171,657,2
759,-61,610,2
914,188,857,2
970,-119,550,2
956,409,801,2
151,-337,434,2
692,789,648,2
1478,-573,400,2
702,569,685,2
658,255,910,2
802,140,403,2
441,117,818,2
1044,88,321,2
822,30,533,2
666,233,601,2
828,-48,537,2
782,144,621,2
755,-10,691,2
802,166,649,2
626,38,582,2
714,145,620,2
828,9,691,2
787,43,555,2
584,51,669,2
870,116,727,2
683,46,658,2
594,244,854,2
712,176,715,2
727,128,627,2
651,66,715,2
528,143,670,2
792,175,671,2
632,-99,703,2
721,221,729,2
798,89,575,2
720,221,888,2
654,129,806,2
458,91,578,2
905,255,666,2
912,-38,576,2
781,108,801,2
684,63,853,2
828,22,596,2
540,381,768,2
1011,188,812,2
639,312,783,2
482,194,795,2
946,259,759,2
799,143,800,2
558,-74,525,2
386,543,821,2
676,-292,192,2
1004,712,943,2
239,-433,589,2
1419,845,1103,2
750,-434,701,2
63,344,726,2
1385,314,909,2
1005,-2,527,2
124,75,1057,2
698,610,477,2
761,30,899,2
980,-64,746,2
390,703,855,2
846,250,773,2
738,-119,812,2
571,98,785,2
391,78,419,2
579,1204,1262,2
984,-681,583,2
237,434,1040,2
759,451,912,2
648,106,420,2
42,345,1145,2
870,91,223,2
887,181,701,2
729,-76,925,2
327,226,881,2
1096,185,566,2
472,14,827,2
689,162,812,2
719,292,639,2
621,465,790,2
813,66,869,2
848,212,904,2
486,139,1025,2
402,443,895,2
1403,85,636,2
236,390,934,2
778,358,918,2
619,139,659,2
472,411,957,2
401,140,699,2
441,421,717,2
559,297,596,2
178,-8,565,2
581,356,892,2
805,40,424,2
122,232,822,2
1061,241,795,2
550,-1,924,2
591,220,1000,2
748,113,712,2
996,387,631,2
662,383,905,2
742,326,968,2
1035,341,840,2
800,411,803,2
307,520,841,2
228,577,864,2
192,465,982,2
582,-78,555,2
580,233,529,2
900,147,829,2
260,232,972,2
498,231,896,2
521,158,654,2
420,453,1006,2
852,260,429,2
323,398,751,2
845,443,678,2
316,-63,792,2
724,349,870,2
476,74,720,2
301,297,581,2
848,209,604,2
612,40,539,2
429,207,1109,2
673,78,812,2
360,173,975,2
769,611,1014,2
634,459,808,2
812,225,738,2
614,142,641,2
837,340,621,2
841,271,634,2
230,613,1034,2
389,181,910,2
-19,169,820,2
893,492,950,2
44,13,688,2
636,462,866,2
105,126,1015,2
278,15,681,2
684,287,832,2
371,190,778,2
515,374,1049,2
477,510,813,2
393,373,850,2
505,273,551,2
572,353,670,2
579,6,879,2
348,18,665,2
511,279,927,2
808,147,729,2
-219,174,812,2
912,698,1457,2
561,-407,377,2
194,848,1123,2
839,234,715,2
757,71,384,2
465,154,779,2
634,454,881,2
842,265,694,2
149,293,886,2
291,431,1051,2
287,70,862,2
354,171,802,2
666,170,851,2
705,55,588,2
152,77,1141,2
488,154,854,2
699,143,783,2
630,210,870,2
478,356,740,2
707,498,739,2
361,169,693,2
456,592,1320,2
471,-94,734,2
432,320,652,2
560,-37,626,2
450,396,870,2
808,9,693,2
232,392,995,2
566,442,988,2
579,249,879,2
592,176,553,2
729,259,787,2
981,7,532,2
297,356,795,2
565,208,775,2
671,496,796,2
373,176,842,2
229,266,1038,2
439,188,803,2
514,508,827,2
387,233,904,2
404,317,788,2
487,51,696,2
475,362,916,2
490,226,1001,2
727,451,600,2
408,369,757,2
461,438,783,2
642,60,526,2
342,180,985,2
526,172,736,2
580,204,723,2
424,279,925,2
529,-55,850,2
547,423,940,2
294,302,864,2
224,471,1170,2
487,319,806,2
666,487,603,2
992,178,672,2
456,112,499,2
624,448,781,2
456,160,891,2
298,203,889,2
157,75,956,2
769,253,811,2
184,382,990,2
459,526,849,2
395,21,752,2
587,343,804,2
424,130,738,2
718,226,760,2
639,161,571,2
247,320,811,2
1281,282,961,2
-865,118,643,2
1555,-13,980,2
-107,364,550,2
1071,44,724,2
402,-224,785,2
734,203,818,2
596,-11,904,2
631,199,765,2
596,349,887,2
359,408,995,2
513,474,1022,2
476,294,892,2
386,360,782,2
846,271,615,2
145,359,699,2
841,184,750,2
295,107,712,2
490,204,934,2
612,-164,884,2
421,475,1126,2
257,76,841,2
730,364,837,2
397,94,729,2
709,30,506,2
631,469,940,2
656,-235,528,2
444,538,829,2
884,86,946,2
201,379,857,2
611,165,773,2
726,91,551,2
412,132,642,2
950,134,696,2
353,89,890,2
567,158,867,2
447,431,892,2
620,155,1055,2
299,529,983,2
664,121,744,2
728,310,424,2
472,356,564,2
620,395,826,2
523,114,844,2
278,-32,814,2
556,179,1020,2
615,-64,748,2
358,282,900,2
468,294,780,2
481,307,749,2
564,78,911,2
632,156,813,2
471,198,876,2
682,267,585,2
717,397,623,2
482,-69,765,2
806,178,868,2
377,2,627,2
570,287,1039,2
635,14,680,2
573,331,655,2
740,99,819,2
698,304,917,2
596,163,986,2
477,523,983,2
616,313,945,2
722,157,765,2
340,379,713,2
779,273,791,2
733,342,560,2
600,593,837,2
-237,-275,619,2
115,1159,1197,2
1291,-738,111,2
335,900,1535,2
640,-585,155,2
-957,1069,1499,2
1220,-937,190,2
-636,1076,1349,2
1387,-197,166,2
850,768,836,2
450,-9,750,2
340,486,977,2
477,30,467,2
382,94,544,2
740,72,873,2
285,-38,803,2
876,259,781,2
378,131,695,2
810,196,757,2
414,222,1048,2
376,354,1043,2
426,271,976,2
537,378,705,2
548,291,754,2
929,-45,555,2
400,438,655,2
550,296,792,2
615,422,799,2
360,-17,751,2
281,302,1148,2
586,-15,839,2
740,273,766,2
482,230,975,2
354,38,787,2
570,141,816,2
354,166,912,2
695,264,802,2
838,199,574,2
749,450,802,2
463,113,714,2
500,316,790,2
433,98,667,2
384,211,931,2
518,71,781,2
563,135,737,2
699,264,765,2
625,129,808,2
567,366,869,2
254,371,1146,2
360,133,945,2
848,222,682,2
677,275,622,2
707,116,732,2
805,303,638,2
603,240,660,2
165,455,1127,2
559,376,982,2
274,-4,716,2
432,577,980,2
375,184,710,2
570,234,677,2
473,199,823,2
383,215,882,2
709,60,777,2
513,228,742,2
642,288,733,2
614,254,638,2
498,234,785,2
570,53,805,2
647,104,601,2
728,99,863,2
544,23,599,2
607,339,834,2
642,45,789,2
412,76,673,2
689,284,876,2
799,74,764,2
528,267,806,2
662,122,754,2
883,138,624,2
723,91,769,2
580,-24,753,2
661,281,762,2
509,287,721,2
623,339,914,2
623,60,799,2
372,354,950,2
464,239,836,2
643,65,566,2
663,218,779,2
616,67,788,2
291,171,797,2
806,33,613,2
710,95,489,2
740,417,969,2
746,18,615,2
556,171,772,2
813,69,746,2
26,-24,593,2
1200,-2,742,2
578,76,706,2
789,42,592,2
865,-19,647,2
596,187,704,2
809,-239,907,2
714,137,756,2
515,119,748,2
811,253,815,2
872,5,552,2
621,70,740,2
765,218,682,2
608,80,749,2
787,-117,662,2
545,278,864,2
530,207,970,2
1064,-126,731,2
87,104,743,2
856,110,561,2
669,-24,622,2
847,89,794,2
570,3,717,2
767,108,635,2
796,-98,700,2
750,72,722,2
570,48,693,2
767,12,694,2
577,-68,727,2
572,117,749,2
763,-9,614,2
804,16,777,2
565,77,717,2
645,-14,699,2
887,-36,602,2
577,11,735,2
685,197,887,2
1102,-277,683,2
218,133,756,2
584,331,738,2
900,-311,441,2
900,250,760,2
215,-65,794,2
646,455,749,2
772,-42,764,2
221,143,932,2
290,83,292,2
1311,883,1068,2
902,-475,530,2
150,178,827,2
499,331,442,2
1399,-446,771,2
671,-292,610,2
169,468,778,2
755,-255,697,2
1060,-89,734,2
738,161,930,2
445,86,508,2
533,51,763,2
716,-213,813,2
725,137,741,2
726,128,719,2
533,142,782,2
684,-20,867,2
661,-9,785,2
790,289,739,2
557,307,900,2
580,112,774,2
517,116,860,2
596,122,661,2
701,343,806,2
685,43,802,2
658,303,927,2
422,111,823,2
444,86,761,2
735,229,897,2
655,256,789,2
598,80,865,2
668,183,986,2
731,124,1046,2
933,-4,693,2
690,-169,622,2
373,-10,680,2
779,-102,652,2
538,-41,934,2
696,156,793,2
212,519,1257,2
770,190,580,2
841,-35,696,2
489,-228,597,2
1142,-152,796,2
513,1,780,2
466,141,875,2
475,92,920,2
571,559,1057,2
444,41,815,2
640,266,889,2
730,-192,606,2
812,120,751,2
534,-124,355,2
755,221,873,2
732,16,894,2
352,54,882,2
495,147,787,2
604,105,790,2
718,100,770,2
397,285,974,2
649,76,834,2
526,115,839,2
736,50,694,2
608,17,675,2
799,105,718,2
604,124,804,2
633,-16,814,2
425,254,801,2
983,-2,923,2
297,351,620,2
703,-3,818,2
415,-35,575,2
806,-142,730,2
869,-113,757,2
658,147,680,2
738,50,866,2
479,192,673,2
964,-49,969,2
245,250,737,2
785,8,704,2
808,348,825,2
439,137,436,2
987,276,976,2
368,5,769,2
976,188,980,2
507,-246,831,2
398,286,518,2
682,165,758,2
437,37,980,2
522,65,912,2
880,227,609,2
471,342,958,2
703,100,720,2
512,252,578,2
611,79,580,2
589,-60,788,2
873,-29,1017,2
296,185,668,2
620,-50,1003,2
518,534,830,2
758,91,710,2
531,30,529,2
1217,-128,724,2
301,275,966,2
339,52,916,2
886,-55,620,2
772,170,714,2
564,178,784,2
601,468,919,2
679,-49,760,2
595,62,831,2
722,88,769,2
674,158,793,2
381,-134,785,2
572,-13,724,2
566,168,752,2
691,45,758,2
888,-89,653,2
579,19,782,2
680,68,621,2
699,64,768,2
555,18,753,2
653,121,810,2
752,-30,768,2
554,116,926,2
412,182,664,2
748,-52,561,2
788,-137,534,2
738,-9,672,2
568,2,868,2
545,186,829,2
935,-211,909,2
693,-17,978,2
564,39,584,2
769,117,696,2
739,-66,432,2
726,-39,643,2
1106,35,668,2
655,-17,690,2
724,29,660,2
936,14,630,2
654,113,845,2
611,64,1009,2
478,317,727,2
837,267,740,2
609,154,509,2
791,189,701,2
557,-35,620,2
665,110,772,2
852,-163,681,2
743,274,672,2
593,-10,672,2
677,172,666,2
734,-87,572,2
704,46,771,2
670,-2,654,2
623,121,746,2
739,42,613,2
814,22,878,2
640,212,680,2
633,137,717,2
713,106,686,2
797,34,568,2
638,-16,765,2
684,148,756,2
650,1,708,2
570,154,693,2
996,34,829,2
556,83,568,2
270,109,674,2
854,303,874,2
964,-235,354,2
61,206,804,2
322,19,212,2
1657,-2,899,2
274,-91,659,2
608,874,1420,2
1143,-816,11,2
43,740,923,2
225,-64,1127,2
998,62,189,2
635,178,932,2
1008,97,473,2
427,116,1174,2
581,79,547,2
1011,321,688,2
621,-190,477,2
451,323,948,2
516,132,776,2
592,168,731,2
566,79,707,2
729,163,638,2
795,149,713,2
676,89,589,2
795,140,817,2
722,150,670,2
461,85,861,2
466,135,708,2
843,234,713,2
533,114,705,2
578,268,812,2
549,40,563,2
876,154,743,2
773,73,772,2
708,173,640,2
530,190,877,2
681,142,659,2
521,-22,730,2
694,261,663,2
635,52,577,2
661,97,697,2
769,-97,622,2
847,127,745,2
834,42,639,2
415,158,823,2
857,-58,635,2
671,230,672,2
865,43,665,2
711,274,815,2
718,-39,680,2
560,269,655,2
1232,58,644,2
607,226,805,2
584,244,869,2
926,248,739,2
548,184,710,2
759,198,749,2
638,304,687,2
737,100,682,2
524,147,730,2
1003,197,573,2
694,106,814,2
413,159,780,2
980,239,637,2
636,332,837,2
519,-70,705,2
515,411,756,2
662,147,677,2
600,226,821,2
626,169,581,2
1053,462,1030,2
-14,-328,380,2
919,759,759,2
649,-193,435,2
610,14,702,2
366,55,682,2
1163,10,554,2
428,178,922,2
825,165,586,2
706,103,793,2
692,119,654,2
699,122,813,2
745,175,670,2
621,388,945,2
965,27,647,2
233,239,901,2
1383,93,575,2
306,437,907,2
746,131,725,2
783,269,640,2
607,244,932,2
745,315,698,2
562,86,833,2
557,194,807,2
1038,389,737,2
432,209,871,2
607,247,830,2
748,305,603,2
626,232,859,2
543,118,706,2
863,199,726,2
513,168,702,2
972,341,832,2
881,-21,649,2
216,130,850,2
1005,397,777,2
554,-89,701,2
980,575,1102,2
566,259,742,2
385,269,1008,2
590,387,773,2
682,105,496,2
137,367,770,2
698,323,648,2
530,112,438,2
941,330,879,2
305,-102,411,2
998,164,831,2
576,58,585,2
455,116,790,2
572,284,720,2
878,260,724,2
395,-44,730,2
528,-22,810,2
633,527,858,2
445,72,799,2
678,151,742,2
657,-31,696,2
953,-25,686,2
635,87,829,2
802,208,731,2
473,140,753,2
512,550,788,2
903,-140,770,2
312,347,998,2
594,-201,529,2
1053,789,919,2
312,183,959,2
631,563,975,2
539,339,948,2
396,304,589,2
486,411,825,2
1277,-108,683,2
-350,427,284,2
1346,599,1052,2
289,-387,511,2
251,658,1033,2
790,-269,821,2
-32,354,1229,2
980,406,1026,2
145,558,909,2
594,251,620,2
578,430,854,2
350,112,572,2
590,707,701,2
676,29,427,2
443,372,923,2
384,-85,692,2
522,304,1001,2
347,80,926,2
451,420,781,2
872,207,515,2
542,225,799,2
692,49,805,2
565,-5,722,2
731,245,697,2
752,122,671,2
457,419,808,2
660,266,823,2
487,251,955,2
330,360,838,2
893,221,717,2
395,47,852,2
566,296,848,2
785,183,648,2
143,299,964,2
953,26,401,2
1644,447,1216,2
296,-495,475,2
-739,865,609,2
1387,347,908,2
251,-793,397,2
995,1201,1298,2
1275,-892,261,2
-536,1075,1250,2
833,29,653,2
612,234,556,2
516,359,985,2
1483,-142,521,2
214,227,907,2
337,656,780,2
646,342,660,2
119,267,901,2
299,334,843,2
740,-10,708,2
455,321,1002,2
624,346,648,2
759,189,698,2
440,-78,487,2
863,148,637,2
403,-58,723,2
851,160,808,2
612,15,702,2
684,127,792,2
323,345,701,2
497,221,938,2
824,-227,652,2
622,116,798,2
811,211,758,2
665,-79,565,2
841,172,744,2
542,-43,541,2
680,421,903,2
935,16,787,2
538,75,819,2
416,353,825,2
531,-147,703,2
134,523,760,2
1084,-187,693,2
622,37,845,2
973,129,676,2
862,219,690,2
493,85,781,2
388,99,665,2
1017,-10,777,2
647,-15,790,2
789,457,842,2
408,204,776,2
454,121,827,2
677,24,667,2
663,-112,585,2
842,222,757,2
935,13,589,2
652,110,852,2
282,45,616,2
897,325,790,2
662,-85,742,2
643,380,809,2
1300,-6,793,2
465,252,903,2
591,52,885,2
1011,-399,201,2
-76,746,848,2
1286,-486,397,2
575,61,785,2
723,260,884,2
730,19,667,2
348,390,836,2
718,38,714,2
321,106,821,2
866,245,732,2
739,162,789,2
984,47,732,2
625,109,807,2
507,30,666,2
1076,83,530,2
-190,158,811,2
1257,267,655,2
494,39,771,2
772,280,1176,2
593,-144,669,2
275,153,872,2
759,106,440,2
849,-58,785,2
712,196,703,2
632,212,828,2
1056,50,623,2
13,404,895,2
951,-61,661,2
451,45,695,2
551,250,761,2
732,182,732,2
546,42,861,2
651,329,819,2
789,-79,626,2
777,78,708,2
510,-56,742,2
915,54,589,2
637,201,711,2
627,52,806,2
669,219,777,2
459,165,858,2
626,154,835,2
813,-84,819,2
277,98,855,2
832,-76,519,2
649,235,717,2
695,13,710,2
754,0,632,2
668,104,658,2
843,-63,714,2
798,115,796,2
355,84,780,2
817,156,734,2
598,97,855,2
633,267,927,2
747,-18,600,2
497,261,823,2
933,17,622,2
604,-58,803,2
718,122,755,2
698,0,349,2
664,285,871,2
655,-129,703,2
292,97,798,2
784,101,711,2
863,-236,834,2
564,17,851,2
435,222,632,2
808,76,528,2
679,41,853,2
751,99,840,2
643,-34,670,2
673,238,697,2
720,7,671,2
628,-39,783,2
487,142,817,2
739,83,730,2
415,211,997,2
778,9,742,2
461,138,691,2
811,110,573,2
925,-57,609,2
647,-52,817,2
374,111,613,2
973,-60,578,2
407,362,824,2
620,-202,697,2
377,213,980,2
710,-128,719,2
886,-69,756,2
430,-70,834,2
666,153,526,2
972,12,567,2
975,-2,838,2
445,159,754,2
676,-54,676,2
610,213,803,2
800,-46,732,2
873,157,786,2
509,132,765,2
892,110,795,2
378,199,853,2
926,70,740,2
724,116,603,2
811,148,788,2
1241,133,570,2
429,10,873,2
434,267,810,2
736,140,548,2
394,273,1000,2
563,145,994,2
492,-114,685,2
581,504,812,2
769,33,784,2
780,-48,624,2
182,334,644,2
1124,143,554,2
356,-57,737,2
528,272,851,2
834,-38,566,2
404,298,1004,2
724,62,731,2
353,160,964,2
423,174,710,2
906,161,630,2
538,286,812,2
675,59,711,2
746,74,684,2
596,93,779,2
747,241,726,2
412,116,823,2
555,239,793,2
686,25,718,2
434,269,1011,2
433,73,818,2
554,64,713,2
632,250,928,2
967,-86,622,2
460,291,828,2
660,-61,618,2
993,283,632,2
353,94,930,2
635,112,823,2
440,109,642,2
849,293,912,2
366,378,880,2
711,-75,811,2
662,127,766,2
1028,111,697,2
525,210,794,2
534,6,703,2
683,199,659,2
591,206,747,2
809,288,854,2
460,89,756,2
420,285,942,2
640,-19,803,2
446,20,820,2
535,203,835,2
592,162,666,2
690,337,878,2
694,-101,659,2
568,376,837,2
610,3,507,2
656,182,815,2
572,80,795,2
445,7,712,2
896,253,758,2
543,90,911,2
554,81,861,2
544,217,896,2
580,71,712,2
948,91,716,2
572,136,740,2
740,-115,689,2
701,283,622,2
507,205,729,2
563,51,828,2
668,201,945,2
550,-18,851,2
456,26,799,2
403,181,825,2
843,-19,706,2
253,2,774,2
1165,255,601,2
531,-30,699,2
535,145,791,2
792,-27,355,2
581,15,872,2
923,102,903,2
365,-96,762,2
708,313,784,2
793,66,710,2
368,200,962,2
-29,19,352,2
-571,241,42,2
1761,388,534,2
-109,655,1303,2
1313,63,562,2
-1535,61,265,2
408,546,1186,2
852,1309,375,2
20,-458,392,2
1690,350,553,2
548,-52,1073,2
138,-79,784,2
560,633,266,2
621,-327,559,2
536,87,827,2
987,-133,460,2
644,318,1008,2
489,65,865,2
581,369,997,2
605,154,732,2
209,319,841,2
1014,195,461,2
756,287,546,2
147,86,989,2
1021,140,788,2
541,7,643,2
734,172,777,2
1209,104,828,2
259,203,974,2
454,449,729,2
936,323,777,2
47,-145,983,2
617,348,663,2
733,-46,560,2
602,304,951,2
989,-71,700,2
208,209,920,2
847,224,547,2
686,120,692,2
608,57,917,2
632,23,638,2
696,197,699,2
637,133,891,2
690,90,788,2
320,203,881,2
651,191,780,2
648,249,852,2
672,13,806,2
812,286,749,2
685,-65,527,2
480,214,766,2
482,212,667,2
754,264,837,2
563,106,795,2
622,192,859,2
483,-94,807,2
474,169,845,2
787,-52,663,2
416,45,842,2
848,21,724,2
582,-26,639,2
822,352,829,2
810,-150,657,2
389,250,879,2
604,135,816,2
675,59,804,2
452,-101,800,2
389,493,807,2
1079,-8,717,2
269,192,962,2
800,35,843,2
657,128,656,2
674,120,797,2
877,-174,451,2
227,325,790,2
812,9,816,2
444,162,741,2
732,182,1040,2
814,-74,717,2
-42,126,1091,2
878,-139,482,2
485,96,615,2
627,-42,817,2
1020,-99,611,2
506,104,830,2
693,51,696,2
617,81,668,2
661,127,911,2
478,115,847,2
614,311,668,2
498,76,699,2
863,165,1005,2
426,9,809,2
435,489,891,2
969,-173,759,2
461,265,672,2
763,21,511,2
474,28,699,2
1059,-125,894,2
447,243,819,2
633,115,1123,2
690,30,816,2
507,348,1022,2
661,42,858,2
701,375,863,2
613,242,604,2
854,510,560,2
230,250,644,2
644,113,845,2
690,22,691,2
475,129,643,2
755,-84,662,2
630,87,792,2
491,85,761,2
782,321,825,2
642,-64,654,2
266,732,956,2
964,-126,977,2
419,458,736,2
715,-36,781,2
535,302,360,2
427,422,783,2
562,240,846,2
702,-92,847,2
460,213,972,2
560,59,886,2
500,85,826,2
452,378,844,2
617,19,636,2
740,-64,597,2
653,62,613,2
776,102,645,2
685,137,763,2
756,107,830,2
546,57,790,2
495,136,798,2
762,128,752,2
612,85,857,2
507,159,792,2
769,-58,682,2
600,210,729,2
870,-15,746,2
791,-100,627,2
452,151,704,2
964,76,528,2
499,46,772,2
347,89,884,2
1174,-160,697,2
124,184,1044,2
915,77,720,2
772,84,783,2
-315,-52,436,2
1316,296,552,2
583,-111,1020,2
675,49,730,2
834,93,644,2
309,106,877,2
626,41,754,2
866,-56,576,2
622,140,1017,2
579,66,769,2
620,111,816,2
489,120,684,2
879,-35,479,2
519,55,612,2
1191,-121,855,2
457,94,742,2
411,151,866,2
1011,-87,564,2
358,128,839,2
565,-19,649,2
782,109,789,2
325,-37,859,2
704,239,869,2
597,-71,747,2
633,137,739,2
873,-112,445,2
723,172,846,2
526,-58,686,2
586,130,790,2
576,86,744,2
856,191,1039,2
526,270,830,2
263,264,878,2
661,-14,672,2
640,-171,488,2
649,191,683,2
889,-192,538,2
953,-15,746,2
584,47,865,2
833,77,854,2
467,46,797,2
848,170,749,2
704,207,831,2
697,38,955,2
431,208,774,2
841,133,862,2
663,205,957,2
311,-105,744,2
540,329,585,2
667,174,550,2
784,60,770,2
714,-59,742,2
988,-1,789,2
286,158,751,2
471,73,741,2
615,205,855,2
562,106,873,2
704,462,979,2
756,-29,630,2
382,180,881,2
387,2,590,2
1017,-12,480,2
571,153,744,2
539,91,686,2
475,228,905,2
771,84,859,2
461,109,911,2
733,128,729,2
557,72,802,2
435,-35,786,2
736,234,873,2
824,-174,731,2
406,289,1012,2
745,-59,579,2
514,116,727,2
755,12,735,2
792,128,761,2
284,92,1018,2
837,226,759,2
358,205,968,2
1827,-193,965,2
-1236,128,320,2
617,267,534,2
1735,-188,376,2
342,3,557,2
325,616,549,2
1949,-500,711,2
-386,77,812,2
-628,308,1142,2
632,445,787,2
846,-619,704,2
551,767,854,2
777,-414,783,2
690,671,965,2
516,26,735,2
477,143,511,2
751,4,464,2
551,6,836,2
513,-51,581,2
864,193,719,2
956,109,725,2
534,66,780,2
248,31,751,2
1054,-93,726,2
460,132,815,2
412,45,968,2
709,26,485,2
841,327,970,2
945,32,758,2
630,216,902,2
714,68,769,2
159,156,620,2
852,221,792,2
807,-95,780,2
320,661,1145,2
822,-34,634,2
465,29,1117,2
692,-137,549,2
536,174,686,2
878,-18,633,2
366,234,692,2
563,-12,777,2
595,-16,574,2
553,107,784,2
963,-77,581,2
422,178,881,2
649,52,611,2
669,268,820,2
281,-279,633,2
1325,552,1318,2
714,-275,836,2
74,299,869,2
684,343,567,2
637,-53,580,2
381,286,953,2
1122,-83,412,2
780,151,1038,2
311,227,898,2
142,-30,972,2
716,156,779,2
468,-117,562,2
821,60,880,2
884,100,721,2
400,21,799,2
590,317,836,2
647,-119,627,2
557,28,847,2
713,-18,612,2
745,84,604,2
496,0,854,2
812,118,803,2
480,0,823,2
533,165,801,2
812,-105,790,2
665,212,862,2
326,146,782,2
854,30,567,2
46,-17,450,2
1818,-150,877,2
99,245,796,2
347,381,940,2
934,88,670,2
268,-159,914,2
501,398,868,2
507,10,674,2
791,11,1006,2
590,-11,795,2
778,35,566,2
1670,28,891,2
-891,-656,290,2
658,1210,874,2
952,-675,296,2
571,86,942,2
893,221,805,2
648,54,915,2
93,136,769,2
169,468,731,2
1306,-593,-80,2
-697,852,834,2
1552,-103,472,2
654,193,940,2
360,-202,1114,2
835,-79,258,2
1561,84,680,2
-244,249,943,2
679,304,787,2
382,262,1014,2
1311,-268,838,2
122,432,918,2
1246,347,1026,2
-533,222,787,2
739,147,634,2
616,24,530,2
1155,10,813,2
421,439,934,2
674,0,685,2
490,307,881,2
306,-47,855,2
402,272,833,2
1062,33,747,2
614,326,926,2
183,425,1196,2
1147,-318,761,2
-333,225,663,2
957,125,656,2
899,-102,325,2
595,-22,748,2
839,0,876,2
733,-149,491,2
285,111,1081,2
1020,-20,800,2
179,146,737,2
411,296,1136,2
1087,-408,331,2
97,524,1353,2
735,-45,830,2
503,-138,578,2
688,362,761,2
1021,-189,291,2
246,318,906,2
1123,-133,841,2
728,21,955,2
427,216,1004,2
471,193,833,2
513,177,811,2
478,334,795,2
559,178,901,2
454,97,620,2
852,212,815,2
787,-65,621,2
337,-77,562,2
659,327,1100,2
1322,-335,256,2
-73,324,1111,2
864,152,701,2
308,54,722,2
374,172,965,2
381,-287,1094,2
652,-548,919,2
452,165,910,2
724,139,507,2
742,-14,357,2
363,241,1153,2
782,-238,674,2
814,91,664,2
740,295,850,2
574,13,859,2
398,127,917,2
627,58,727,2
469,318,862,2
875,40,831,2
531,214,747,2
876,47,824,2
784,-34,639,2
575,-6,768,2
502,185,743,2
759,-80,749,2
735,269,699,2
333,280,1075,2
827,278,988,2
159,-19,793,2
345,433,937,2
1185,-164,625,2
271,304,1042,2
550,129,705,2
503,199,708,2
394,-10,682,2
736,151,523,2
778,34,786,2
771,95,855,2
258,89,738,2
621,124,840,2
711,-75,738,2
144,172,793,2
1146,-137,613,2
531,150,849,2
748,130,963,2
778,95,637,2
390,-64,661,2
1525,131,989,2
-83,-590,0,2
-22,917,1235,2
1284,-9,716,2
126,-117,304,2
507,928,1396,2
853,-927,216,2
343,548,1037,2
603,145,786,2
652,-156,411,2
846,345,1090,2
216,-109,722,2
966,379,915,2
514,62,537,2
566,538,1308,2
648,-95,552,2
379,143,700,2
810,-69,637,2
871,243,926,2
706,-483,461,2
-89,264,760,2
1093,-183,526,2
769,-151,614,2
568,110,920,2
1171,-364,495,2
880,185,754,2
578,-9,801,2
692,88,1021,2
536,355,813,2
521,901,1350,2
1234,-391,498,2
-264,262,1007,2
347,735,1026,2
619,-98,533,2
149,219,1003,2
878,-138,424,2
688,318,918,2
509,4,659,2
762,145,682,2
542,78,699,2
510,0,831,2
592,116,809,2
523,28,716,2
695,59,694,2
669,-20,671,2
630,325,870,2
497,79,741,2
611,101,891,2
826,5,819,2
296,94,751,2
996,8,698,2
671,53,642,2
709,-15,655,2
631,112,714,2
700,-41,825,2
563,381,970,2
340,-42,832,2
726,162,802,2
433,31,799,2
443,191,851,2
849,-157,667,2
476,205,787,2
717,-57,784,2
713,124,681,2
658,26,716,2
666,271,748,2
718,-46,712,2
509,120,778,2
672,213,851,2
642,-28,719,2
487,65,778,2
863,-37,688,2
236,1,972,2
738,70,689,2
511,117,664,2
1098,195,980,2
594,11,685,2
466,-98,665,2
916,8,641,2
631,196,709,2
767,87,964,2
440,-112,591,2
784,405,1004,2
444,-77,820,2
275,192,888,2
1223,26,746,2
-105,93,785,2
821,-70,711,2
662,178,729,2
630,-24,755,2
857,-31,581,2
681,118,733,2
529,-58,703,2
696,160,872,2
706,-43,681,2
237,280,901,2
927,102,684,2
362,-80,559,2
1005,42,985,2
968,-5,782,2
320,-155,758,2
363,218,665,2
802,36,809,2
955,-136,748,2
223,74,740,2
1507,-147,514,2
220,536,747,2
635,-63,956,2
587,2,649,2
584,255,814,2
783,-99,697,2
453,292,824,2
450,154,898,2
967,5,799,2
14,100,998,2
1053,170,644,2
396,-96,557,2
758,43,859,2
900,-33,565,2
649,-83,584,2
416,49,851,2
1063,-74,546,2
576,137,752,2
792,-65,757,2
385,85,742,2
694,112,778,2
768,-51,594,2
338,131,976,2
1566,-181,558,2
-9,-50,873,2
759,83,702,2
1004,119,487,2
824,-32,716,2
751,0,905,2
447,-99,443,2
1025,238,840,2
302,188,826,2
919,-183,596,2
254,305,874,2
922,-147,612,2
845,-60,871,2
595,-88,626,2
557,167,953,2
751,-114,512,2
353,140,727,2
660,-105,643,2
811,78,752,2
1034,-165,751,2
779,59,674,2
467,-15,670,2
847,-188,718,2
460,234,903,2
304,211,948,2
990,3,576,2
707,71,870,2
624,599,755,2
673,-52,808,2
732,-3,679,2
397,91,778,2
545,-66,648,2
924,-100,730,2
535,62,612,2
643,17,808,2
969,-55,659,2
578,-84,801,2
562,70,631,2
673,81,870,2
851,-31,511,2
515,28,830,2
492,127,713,2
763,-122,701,2
1139,255,715,2
320,75,884,2
850,96,758,2
421,62,547,2
858,-43,884,2
718,-35,607,2
871,152,731,2
665,122,750,2
637,194,743,2
743,-111,512,2
948,87,741,2
621,145,641,2
868,105,662,2
685,185,612,2
814,60,583,2
684,83,724,2
1002,17,559,2
642,109,555,2
695,148,631,2
798,40,718,2
661,59,678,2
847,-29,739,2
486,129,611,2
920,274,737,2
912,61,610,2
474,77,741,2
767,123,712,2
602,25,557,2
824,112,704,2
981,-19,594,2
582,113,743,2
841,147,596,2
986,-99,643,2
630,94,822,2
651,144,464,2
646,80,735,2
537,230,897,2
926,-103,844,2
441,190,804,2
737,358,869,2
637,60,575,2
582,-66,680,2
650,141,542,2
650,-135,729,2
889,-66,466,2
923,-15,416,2
787,-76,519,2
810,1,596,2
922,-20,531,2
960,22,476,2
761,-5,559,2
722,66,598,2
712,11,616,2
856,59,643,2
934,114,615,2
692,8,691,2
883,77,568,2
766,16,543,2
857,115,711,2
516,-18,654,2
802,113,816,2
737,33,626,2
570,26,617,2
695,128,814,2
588,-34,728,2
605,123,765,2
891,121,890,2
1134,17,537,2
599,31,718,2
559,137,722,2
593,49,595,2
729,-45,569,2
712,-44,671,2
669,47,757,2
803,79,645,2
778,37,755,2
535,53,567,2
798,101,619,2
884,37,673,2
742,12,672,2
685,10,519,2
817,154,554,2
808,125,553,2
752,39,724,2
732,-5,769,2
506,88,828,2
712,54,686,2
470,164,574,2
825,126,634,2
833,95,649,2
630,37,803,2
851,11,858,2
934,81,629,2
639,-178,872,2
504,317,758,2
886,138,730,2
720,69,1081,2
701,-109,918,2
503,205,819,2
640,35,734,2
686,232,779,2
755,-18,459,2
427,172,633,2
489,291,646,2
467,259,810,2
322,53,868,2
572,10,670,2
1044,-49,504,2
830,63,604,2
866,96,818,2
798,374,896,2
813,318,609,2
482,237,803,2
518,383,1082,2
852,461,1029,2
475,274,956,2
571,347,821,2
370,326,734,2
532,479,831,2
814,130,738,2
64,435,834,2
735,207,816,2
552,262,648,2
623,181,767,2
525,63,578,2
456,356,859,2
1063,107,673,2
734,146,603,2
568,303,851,2
629,147,690,2
401,28,818,2
570,-138,668,2
946,57,706,2
643,218,752,2
421,173,861,2
560,368,791,2
650,158,700,2
767,143,769,2
246,373,972,2
679,297,837,2
896,222,650,2
454,321,1075,2
539,233,838,2
554,238,686,2
560,197,759,2
522,126,646,2
784,340,694,2
842,234,655,2
687,111,812,2
380,234,847,2
661,112,713,2
472,181,884,2
684,153,804,2
624,262,859,2
650,342,714,2
275,267,813,2
439,265,893,2
624,85,768,2
389,91,812,2
488,225,762,2
497,189,672,2
685,109,883,2
833,58,828,2
414,124,1037,2
518,316,790,2
318,215,940,2
646,219,834,2
249,260,800,2
199,350,992,2
403,295,904,2
412,273,966,2
447,290,947,2
438,258,855,2
580,340,731,2
536,193,752,2
384,295,832,2
270,248,922,2
833,239,885,2
710,39,646,2
515,398,1024,2
469,190,783,2
151,177,832,2
786,228,848,2
499,142,734,2
334,339,881,2
513,184,778,2
585,185,865,2
559,40,798,2
586,303,922,2
420,153,895,2
526,146,797,2
611,283,783,2
489,163,920,2
391,143,965,2
474,160,898,2
528,195,780,2
378,266,764,2
666,207,891,2
683,190,690,2
550,204,880,2
449,203,906,2
360,63,850,2
470,241,886,2
636,30,793,2
411,262,959,2
594,179,691,2
232,239,959,2
707,17,898,2
432,-207,782,2
610,-58,807,2
494,-84,629,2
542,126,786,2
717,188,874,2
295,4,789,2
305,58,967,2
468,-14,799,2
299,143,967,2
792,176,951,2
33,61,1158,2
812,173,1002,2
446,220,890,2
355,202,926,2
344,220,767,2
496,141,877,2
624,181,909,2
621,119,633,2
587,160,856,2
437,73,820,2
564,189,748,2
495,192,938,2
328,183,892,2
763,195,746,2
525,213,950,2
290,134,960,2
449,166,698,2
511,149,842,2
577,47,739,2
312,95,770,2
997,133,752,2
628,181,793,2
689,311,1050,2
614,282,837,2
541,397,847,2
602,215,688,2
551,337,852,2
534,203,817,2
442,351,772,2
544,374,842,2
230,410,960,2
374,333,903,2
184,275,1056,2
322,239,911,2
243,211,858,2
298,395,974,2
419,510,1094,2
110,323,1132,2
288,369,947,2
480,318,914,2
643,577,752,2
508,386,420,2
348,609,782,2
451,336,821,2
136,-31,845,2
635,330,729,2
390,17,790,2
364,81,1002,2
465,179,855,2
452,7,758,2
489,-16,823,2
725,11,787,2
501,138,1018,2
563,150,801,2
617,247,732,2
581,285,945,2
713,333,909,2
547,327,820,2
381,147,971,2
739,349,812,2
320,182,655,2
761,546,888,2
261,317,1056,2
45,439,1244,2
391,537,1004,2
-48,532,1108,2
164,513,1008,2
157,606,889,2
450,422,831,2
611,437,642,2
746,420,511,2
678,560,712,2
255,17,712,2
577,96,863,2
179,32,897,2
121,184,985,2
520,81,889,2
159,122,890,2
457,149,892,2
264,-9,792,2
223,261,1152,2
709,232,834,2
508,264,713,2
367,330,993,2
624,286,846,2
354,-61,675,2
570,226,979,2
212,24,840,2
409,201,820,2
490,85,799,2
408,154,871,2
365,97,922,2
372,194,1053,2
-62,161,1005,2
391,341,1019,2
650,190,877,2
807,164,663,2
627,433,890,2
455,151,601,2
573,367,1039,2
626,157,900,2
149,68,877,2
-36,90,853,2
799,436,949,2
279,-34,901,2
106,160,1124,2
389,296,1005,2
440,219,744,2
664,504,912,2
624,222,646,2
437,230,1085,2
413,139,641,2
268,306,1016,2
363,-59,692,2
409,377,848,2
452,384,755,2
554,184,814,2
37,121,1199,2
451,262,1104,2
27,377,1000,2
470,540,1132,2
595,530,720,2
265,281,502,2
846,594,833,2
405,14,644,2
654,409,859,2
367,100,1073,2
-371,-560,651,2
540,1255,1364,2
-291,-355,1130,2
286,358,1220,2
499,362,679,2
434,323,754,2
704,459,614,2
404,193,727,2
387,375,729,2
499,148,615,2
473,109,1072,2
256,31,1006,2
501,59,873,2
324,272,852,2
479,285,787,2
280,268,834,2
474,465,1026,2
212,245,1073,2
499,256,937,2
513,355,756,2
599,413,636,2
619,285,691,2
434,262,859,2
432,120,979,2
239,-87,864,2
229,271,1071,2
147,-181,1087,2
6,779,1351,2
611,-139,782,2
756,236,691,2
479,331,448,2
381,337,888,2
547,79,644,2
222,158,1108,2
446,-156,852,2
281,378,979,2
262,-77,753,2
843,740,1095,2
-316,78,702,2
1093,552,1249,2
-39,218,817,2
846,48,633,2
724,436,757,2
257,253,493,2
859,324,1100,2
-26,149,1059,2
411,428,1076,2
136,360,1321,2
107,374,889,2
-3,267,1187,2
587,340,947,2
1,479,760,2
850,519,572,2
186,604,480,2
890,108,719,2
291,277,659,2
371,23,985,2
-28,-78,1195,2
587,531,691,2
549,128,616,2
541,501,867,2
-23,126,1160,2
385,356,1044,2
730,183,744,2
736,57,707,2
472,312,724,2
533,145,585,2
506,304,710,2
320,132,937,2
818,308,1222,2
431,-277,626,2
520,599,1387,2
269,-268,636,2
385,617,672,2
1004,-18,507,2
628,190,904,2
905,-74,811,2
450,381,713,2
548,285,870,2
351,165,956,2
174,218,963,2
476,452,860,2
754,74,684,2
82,700,1049,2
868,173,925,2
574,406,820,2
821,-33,800,2
520,133,566,2
287,482,918,2
490,56,744,2
469,663,945,2
408,29,726,2
276,569,1104,2
571,-359,650,2
596,530,1001,2
740,-289,431,2
-119,430,934,2
1389,-199,334,2
347,223,759,2
1043,-40,813,2
341,-208,485,2
569,657,1183,2
501,-431,534,2
381,641,1033,2
631,130,755,2
362,203,796,2
1022,191,810,2
364,122,763,2
843,41,866,2
722,121,649,2
724,106,681,2
657,207,715,2
562,225,874,2
582,222,874,2
244,83,773,2
465,589,1344,2
960,-490,517,2
-161,560,1168,2
1031,-40,379,2
706,371,773,2
882,-151,443,2
484,283,853,2
712,159,753,2
399,17,579,2
708,208,1157,2
330,1,670,2
772,442,810,2
660,-13,587,2
440,375,1015,2
732,199,883,2
735,93,793,2
758,48,508,2
722,237,824,2
931,-50,640,2
605,161,753,2
26,35,843,2
661,615,1061,2
445,-55,558,2
185,366,1055,2
846,98,945,2
110,-41,800,2
566,359,909,2
647,-109,555,2
723,476,733,2
775,-80,655,2
539,278,806,2
474,-8,630,2
514,306,933,2
386,-110,720,2
680,105,905,2
483,106,720,2
582,155,782,2
430,194,863,2
475,224,943,2
1072,128,803,2
469,-205,463,2
652,425,954,2
805,138,741,2
489,267,707,2
-151,57,1095,2
1054,509,847,2
525,379,934,2
272,-396,871,2
1,764,1249,2
679,-213,638,2
591,425,677,2
626,121,1036,2
817,121,528,2
443,536,610,2
642,-39,858,2
440,22,699,2
567,403,895,2
582,-110,707,2
488,225,752,2
712,226,800,2
808,108,762,2
280,288,1024,2
600,398,1021,2
849,26,674,2
605,247,829,2
425,351,863,2
575,162,709,2
581,403,801,2
643,201,771,2
-28,359,1183,2
401,23,914,2
579,355,914,2
437,126,820,2
55,314,1019,2
819,317,580,2
620,418,618,2
689,-171,707,2
192,291,848,2
953,108,618,2
407,218,743,2
590,25,862,2
256,203,858,2
661,201,819,2
534,-92,593,2
657,705,1106,2
185,263,1039,2
832,83,777,2
294,186,686,2
710,273,716,2
1033,180,708,2
314,76,623,2
463,403,1235,2
156,46,654,2
122,523,934,2
776,142,1124,2
246,69,752,2
677,477,1190,2
111,-507,512,2
388,1054,1279,2
850,-635,587,2
-84,533,742,2
1031,446,815,2
971,-702,180,2
373,728,891,2
511,-262,943,2
349,487,1143,2
762,-213,466,2
273,430,908,2
691,310,1038,2
532,57,618,2
536,349,995,2
759,51,658,2
662,9,560,2
904,43,740,2
295,131,776,2
637,310,975,2
629,-46,707,2
553,205,1006,2
353,293,1078,2
456,-63,799,2
152,374,960,2
782,-199,707,2
641,195,647,2
550,129,772,2
585,47,706,2
776,299,902,2
726,-266,584,2
266,317,935,2
629,-123,677,2
781,99,792,2
588,119,600,2
463,294,1089,2
524,93,937,2
608,-72,676,2
403,183,763,2
743,187,833,2
718,15,629,2
709,72,891,2
570,-7,789,2
592,262,813,2
562,-17,646,2
567,147,906,2
611,241,856,2
423,76,892,2
459,88,930,2
577,-12,777,2
408,216,827,2
788,-47,606,2
743,67,782,2
596,79,775,2
526,106,760,2
841,90,747,2
507,-39,679,2
458,177,950,2
955,-42,655,2
417,159,903,2
673,213,852,2
489,73,816,2
583,191,826,2
664,-89,584,2
564,278,973,2
821,3,735,2
537,193,860,2
621,-2,607,2
715,191,745,2
1146,-172,665,2
377,153,819,2
471,200,816,2
670,273,815,2
626,111,936,2
410,74,972,2
511,186,826,2
389,10,725,2
905,140,682,2
628,30,764,2
624,54,848,2
592,-27,583,2
720,2,703,2
748,-116,691,2
433,221,796,2
922,70,837,2
589,21,812,2
546,279,917,2
497,-5,725,2
617,114,757,2
622,-1,642,2
712,81,751,2
540,-23,840,2
622,68,767,2
749,-6,694,2
683,68,773,2
642,-173,627,2
598,-18,752,2
811,-14,698,2
563,29,763,2
582,49,723,2
624,83,902,2
644,-47,770,2
531,192,718,2
762,-176,588,2
760,-79,810,2
627,-104,713,2
579,-39,740,2
778,-97,576,2
798,-9,664,2
773,-132,646,2
802,12,796,2
492,111,872,2
882,163,904,2
572,53,858,2
527,131,761,2
681,121,692,2
611,132,732,2
751,160,757,2
856,5,804,2
399,-142,610,2
191,199,701,2
1120,-36,744,2
549,-7,770,2
641,-20,836,2
747,-27,699,2
720,81,673,2
561,61,736,2
981,-40,646,2
386,164,788,2
485,-30,892,2
576,254,848,2
797,-57,739,2
627,3,691,2
629,165,955,2
619,26,875,2
535,8,726,2
587,-73,635,2
561,-71,687,2
789,-66,708,2
673,78,788,2
689,82,816,2
791,-51,822,2
666,28,767,2
643,93,813,2
495,152,784,2
588,-7,768,2
639,-27,632,2
728,187,789,2
819,-66,710,2
617,3,809,2
559,-48,808,2
536,-132,591,2
737,-22,605,2
746,-99,729,2
633,-2,726,2
657,-97,803,2
565,18,688,2
665,17,786,2
709,-129,690,2
720,74,735,2
685,-31,818,2
514,-21,773,2
753,-30,837,2
725,-127,523,2
763,25,622,2
881,-119,595,2
729,-40,634,2
874,-9,728,2
887,-68,617,2
740,17,618,2
822,-9,593,2
805,-6,618,2
761,0,711,2
937,8,671,2
894,56,650,2
691,130,705,2
858,12,587,2
766,39,644,2
881,83,659,2
717,118,705,2
775,95,747,2
674,72,741,2
767,76,755,2
737,69,789,2
703,219,788,2
640,301,752,2
721,69,720,2
634,142,735,2
550,155,683,2
656,80,627,2
643,-5,694,2
628,-50,569,2
593,197,719,2
896,27,920,2
841,-99,646,2
544,72,687,2
800,55,759,2
885,-121,614,2
637,-60,623,2
574,-16,751,2
832,-28,984,2
468,-59,898,2
447,48,1132,2
325,74,978,2
556,242,925,2
676,-177,843,2
690,-107,770,2
770,38,576,2
710,-266,722,2
622,-205,805,2
617,15,797,2
508,-153,752,2
484,-111,723,2
639,89,919,2
666,-14,846,2
550,-81,863,2
218,89,904,2
605,112,848,2
676,2,734,2
369,141,1065,2
855,-28,814,2
1102,384,1126,2
1927,162,154,2
1365,609,19,2
317,-456,352,2
-1845,-912,1093,2
572,282,702,2
378,-134,703,2
515,-13,537,2
1047,558,867,2
791,483,949,2
598,161,1306,2
500,311,1145,2
455,141,914,2
598,10,713,2
479,278,586,2
429,229,695,2
555,3,751,2
424,-30,592,2
1578,377,421,2
1432,180,150,2
971,154,125,2
419,313,1312,2
393,257,1147,2
449,-389,956,2
296,-476,902,2
1084,163,425,2
316,-172,981,2
1053,141,887,2
624,-9,331,2
788,92,695,2
739,104,530,2
652,113,744,2
661,22,852,2
522,-36,693,2
683,-349,846,2
582,182,734,2
550,358,1170,2
527,93,774,2
829,-190,627,2
824,-308,376,2
792,-164,561,2
746,-184,528,2
679,7,800,2
811,-30,695,2
628,-151,786,2
602,-71,828,2
625,-190,622,2
712,-148,786,2
746,-380,602,2
623,-291,652,2
771,-220,892,2
536,-357,813,2
667,-186,967,2
543,-209,828,2
450,22,890,2
390,54,901,2
331,97,880,2
248,96,953,2
305,143,1006,2
225,96,1006,2
226,239,998,2
120,275,974,2
55,370,899,2
42,434,931,2
103,514,983,2
152,336,952,2
196,220,862,2
341,264,891,2
329,290,870,2
295,228,913,2
272,241,939,2
275,193,888,2
184,299,999,2
256,227,1060,2
386,225,945,2
465,192,869,2
536,261,842,2
540,296,795,2
544,338,782,2
617,396,759,2
599,336,757,2
647,211,727,2
587,176,856,2
602,199,765,2
587,188,730,2
578,254,799,2
633,217,755,2
633,213,721,2
613,250,732,2
628,264,696,2
598,329,795,2
580,299,822,2
560,307,800,2
570,283,792,2
584,259,760,2
597,266,729,2
606,245,759,2
603,229,750,2
598,227,743,2
578,250,768,2
555,284,782,2
530,304,794,2
509,326,820,2
521,297,815,2
530,293,814,2
556,274,789,2
556,264,777,2
569,266,748,2
559,268,782,2
559,278,787,2
553,269,804,2
518,266,819,2
561,281,755,2
523,283,814,2
537,307,797,2
545,316,804,2
552,290,822,2
592,251,774,2
582,283,767,2
614,262,742,2
611,240,738,2
635,264,757,2
631,223,744,2
632,235,706,2
635,241,685,2
648,245,704,2
665,262,697,2
670,253,725,2
660,247,701,2
662,250,701,2
612,256,702,2
603,229,739,2
596,231,799,2
591,270,831,2
617,281,801,2
636,247,754,2
663,233,712,2
662,212,682,2
670,227,678,2
684,192,711,2
686,211,690,2
667,224,687,2
662,219,687,2
652,235,695,2
681,258,740,2
672,258,706,2
679,230,670,2
680,209,678,2
683,186,685,2
707,180,662,2
696,201,697,2
660,208,716,2
655,252,742,2
650,255,760,2
651,272,760,2
676,270,781,2
715,326,906,2
913,415,1155,2
959,370,1257,2
1366,671,1082,2
942,202,598,2
101,106,380,2
-562,72,231,2
-853,252,-128,2
-990,431,-442,2
-515,574,-332,2
261,1547,-24,2
364,1672,-103,2
-6,754,95,2
-197,1407,-783,2
-80,1717,-816,2
-151,1002,-652,2
-331,602,-386,2
-333,613,-511,2
-448,-27,-263,2
-447,418,-607,2
-576,524,-538,2
-598,602,-683,2
-565,739,-537,2
-504,604,-614,2
-462,457,-681,2
-430,367,-683,2
-491,478,-786,2
-453,788,-705,2
-381,631,-658,2
-324,691,-633,2
-343,656,-701,2
-348,620,-691,2
-398,545,-714,2
-446,569,-735,2
-456,582,-730,2
-443,570,-720,2
-434,582,-710,2
-421,584,-688,2
-403,573,-622,2
-413,539,-588,2
-350,512,-569,2
-273,509,-504,2
-192,503,-637,2
-172,653,-664,2
-194,616,-710,2
-307,569,-842,2
-441,492,-778,2
-415,511,-853,2
-375,540,-844,2
-259,466,-874,2
-155,581,-749,2
-83,548,-786,2
-91,495,-780,2
-153,537,-742,2
-238,565,-812,2
-338,467,-1133,2
-166,643,-787,2
-78,577,-590,2
57,620,-738,2
-18,617,-759,2
42,675,-824,2
24,702,-726,2
162,522,-808,2
62,665,-791,2
-33,675,-843,2
-132,620,-794,2
-111,539,-761,2
26,592,-846,2
21,588,-764,2
-44,364,-773,2
25,617,-750,2
3,634,-792,2
51,699,-827,2
29,612,-791,2
7,477,-821,2
28,617,-671,2
107,616,-775,2
74,493,-840,2
-58,599,-789,2
-33,649,-814,2
-99,511,-789,2
-77,455,-757,2
-62,495,-825,2
-130,543,-821,2
-103,512,-803,2
-119,517,-821,2
-129,482,-835,2
-175,330,-799,2
-135,535,-880,2
-36,644,-767,2
-138,516,-893,2
-185,681,-863,2
-204,366,-839,2
-225,534,-764,2
-210,536,-764,2
-201,556,-705,2
-150,657,-676,2
-191,648,-698,2
-234,721,-691,2
-237,709,-675,2
-242,648,-710,2
-227,750,-613,2
-249,646,-667,2
-244,642,-662,2
-270,708,-627,2
-223,630,-635,2
-240,737,-610,2
-212,672,-643,2
-190,761,-593,2
-185,647,-589,2
-165,695,-557,2
-183,796,-540,2
-241,831,-548,2
-264,729,-630,2
-201,804,-622,2
-189,745,-636,2
-163,632,-668,2
-107,759,-553,2
-84,679,-543,2
-78,665,-568,2
-75,702,-546,2
-293,645,-748,2
-299,809,-726,2
-54,576,-738,2
-21,626,-854,2
-64,588,-705,2
-84,535,-777,2
-119,433,-851,2
-155,513,-856,2
-152,486,-930,2
-173,469,-928,2
-258,447,-985,2
-217,490,-1056,2
-82,513,-726,2
-82,520,-833,2
-70,481,-763,2
-60,544,-731,2
-31,514,-770,2
-34,513,-753,2
-54,576,-786,2
-68,533,-814,2
-72,590,-767,2
-73,613,-807,2
-67,611,-785,2
-58,602,-763,2
-37,570,-780,2
-39,552,-751,2
-28,567,-758,2
-40,580,-767,2
-40,636,-752,2
-48,584,-771,2
-41,622,-765,2
-43,637,-752,2
-47,615,-741,2
-51,597,-742,2
-47,612,-715,2
-43,573,-752,2
-72,618,-813,2
-58,610,-758,2
-62,617,-792,2
-73,578,-779,2
