AccX [mg],AccY,AccZ,Ground Truth
-103,-183,942,2
-54,-247,948,2
-29,-280,955,2
21,-312,983,2
73,-352,979,2
102,-350,993,2
145,-327,1022,2
164,-310,989,2
163,-309,941,2
190,-260,976,2
179,-298,928,2
174,-288,930,2
181,-280,939,2
196,-285,952,2
197,-284,953,2
199,-282,958,2
190,-297,966,2
185,-315,934,2
152,-323,930,2
144,-295,962,2
149,-266,986,2
151,-262,991,2
155,-257,989,2
144,-265,982,2
143,-260,985,2
145,-256,991,2
133,-261,998,2
130,-245,1009,2
121,-217,1026,2
111,-255,985,2
108,-231,984,2
88,-189,1007,2
78,-205,980,2
62,-208,973,2
61,-211,974,2
60,-221,971,2
59,-235,969,2
58,-243,978,2
58,-257,970,2
61,-274,968,2
69,-278,968,2
78,-278,972,2
80,-292,972,2
80,-302,976,2
84,-305,983,2
84,-322,984,2
87,-331,987,2
87,-337,993,2
80,-355,982,2
77,-353,970,2
66,-343,955,2
54,-335,935,2
48,-328,920,2
45,-322,918,2
49,-319,921,2
51,-318,934,2
65,-301,969,2
79,-279,1001,2
85,-282,1008,2
87,-304,1001,2
106,-286,1001,2
109,-277,992,2
108,-277,977,2
103,-278,973,2
99,-277,969,2
96,-271,968,2
91,-274,976,2
101,-283,984,2
103,-312,983,2
116,-312,998,2
126,-318,1001,2
134,-328,991,2
132,-309,984,2
136,-277,997,2
149,-263,977,2
175,-227,983,2
169,-240,946,2
146,-268,932,2
127,-295,943,2
128,-322,953,2
149,-326,961,2
144,-318,986,2
157,-313,1004,2
168,-335,987,2
158,-360,954,2
143,-378,933,2
143,-388,923,2
140,-402,910,2
150,-385,920,2
159,-392,899,2
163,-366,921,2
185,-335,967,2
209,-352,975,2
193,-392,936,2
130,-433,868,2
81,-449,832,2
88,-428,882,2
136,-374,969,2
152,-356,993,2
116,-369,960,2
97,-353,980,2
129,-381,974,2
145,-398,971,2
116,-429,933,2
50,-492,901,2
50,-487,915,2
63,-510,880,2
80,-502,848,2
54,-448,840,2
64,-344,924,2
115,-257,993,2
149,-234,976,2
135,-228,988,2
121,-244,973,2
110,-273,961,2
124,-284,976,2
146,-233,1005,2
165,-188,1023,2
161,-185,1019,2
169,-163,1015,2
138,-165,1001,2
142,-129,1039,2
144,-155,1014,2
135,-184,990,2
112,-192,981,2
85,-224,966,2
77,-227,980,2
103,-207,1016,2
139,-225,1023,2
169,-224,1021,2
147,-230,994,2
131,-232,996,2
147,-227,1006,2
160,-229,1005,2
167,-222,997,2
148,-231,961,2
127,-219,940,2
130,-195,928,2
140,-175,924,2
167,-162,939,2
184,-168,938,2
190,-187,929,2
167,-182,944,2
154,-174,984,2
159,-159,1032,2
181,-166,1056,2
178,-200,1027,2
170,-208,1008,2
174,-197,1021,2
195,-172,1048,2
231,-157,1080,2
252,-193,1045,2
247,-247,990,2
241,-301,953,2
237,-315,953,2
233,-289,969,2
215,-268,965,2
191,-233,961,2
172,-248,921,2
146,-257,907,2
140,-257,924,2
163,-273,922,2
153,-290,916,2
141,-312,895,2
155,-319,904,2
164,-338,901,2
169,-334,929,2
198,-337,963,2
217,-359,950,2
215,-361,932,2
218,-348,918,2
219,-336,912,2
225,-318,917,2
239,-285,941,2
248,-267,964,2
252,-265,963,2
258,-259,963,2
273,-262,962,2
286,-275,958,2
300,-279,966,2
307,-289,946,2
294,-289,921,2
269,-295,876,2
242,-284,873,2
255,-249,926,2
250,-240,944,2
228,-240,959,2
227,-240,955,2
213,-232,951,2
210,-222,965,2
228,-198,999,2
212,-200,1009,2
197,-189,1014,2
178,-192,996,2
168,-180,1004,2
187,-175,1014,2
175,-178,1020,2
164,-180,1014,2
153,-179,994,2
130,-177,971,2
124,-155,972,2
129,-129,987,2
125,-120,985,2
103,-124,998,2
122,-132,1005,2
132,-148,1015,2
133,-188,981,2
116,-213,965,2
114,-216,980,2
128,-202,1009,2
104,-229,1010,2
103,-239,1011,2
97,-246,1007,2
119,-236,1025,2
129,-253,1015,2
133,-266,990,2
120,-264,964,2
115,-238,965,2
113,-228,976,2
119,-236,974,2
108,-267,963,2
114,-282,971,2
123,-304,957,2
106,-309,937,2
97,-283,935,2
106,-259,946,2
114,-228,981,2
113,-214,1008,2
121,-209,1029,2
115,-232,1017,2
125,-250,1012,2
147,-230,1043,2
175,-234,1032,2
178,-253,986,2
186,-236,907,2
196,-333,996,2
221,-205,882,2
200,-351,943,2
187,-408,1081,2
179,-335,913,2
195,-513,953,2
252,-352,964,2
226,-280,910,2
229,-306,839,2
197,-333,881,2
197,-326,868,2
205,-370,824,2
298,-388,840,2
275,-558,881,2
353,-416,964,2
392,-302,1079,2
281,-229,984,2
183,-210,1026,2
142,-243,970,2
156,-171,913,2
219,-227,974,2
231,-254,938,2
220,-220,940,2
149,-173,993,2
107,-192,995,2
107,-198,992,2
148,-287,957,2
133,-283,967,2
145,-254,1002,2
175,-263,985,2
162,-235,983,2
137,-213,978,2
105,-222,965,2
111,-196,1001,2
125,-188,1015,2
143,-208,1020,2
121,-190,974,2
111,-241,953,2
88,-223,934,2
86,-216,935,2
101,-247,959,2
128,-225,1015,2
123,-248,1009,2
88,-262,1005,2
71,-247,1009,2
118,-239,1010,2
127,-237,992,2
151,-202,979,2
155,-212,987,2
192,-186,1022,2
207,-183,1029,2
209,-214,1005,2
188,-216,984,2
186,-215,963,2
166,-202,949,2
158,-178,942,2
151,-167,916,2
150,-151,933,2
176,-136,954,2
193,-159,956,2
203,-158,976,2
227,-159,985,2
243,-168,986,2
219,-192,955,2
200,-186,965,2
209,-176,1006,2
235,-176,1032,2
208,-187,1026,2
188,-170,1037,2
180,-161,1025,2
179,-122,1029,2
196,-89,1031,2
196,-94,1023,2
209,-118,1010,2
225,-130,1010,2
233,-138,999,2
226,-155,968,2
196,-151,938,2
171,-126,913,2
168,-84,916,2
193,-37,965,2
215,-29,988,2
212,-40,999,2
187,-80,983,2
173,-90,1001,2
189,-77,1037,2
201,-68,1071,2
214,-68,1081,2
198,-116,1042,2
196,-158,1026,2
215,-161,1013,2
208,-152,999,2
206,-119,999,2
186,-93,983,2
166,-79,985,2
142,-83,987,2
142,-88,998,2
141,-80,1012,2
143,-100,996,2
155,-118,992,2
155,-128,993,2
172,-122,1014,2
203,-104,1051,2
216,-125,1034,2
207,-143,999,2
168,-149,945,2
137,-105,945,2
140,-60,989,2
175,-19,1045,2
175,-56,1030,2
157,-128,986,2
149,-181,955,2
156,-155,987,2
188,-120,1028,2
205,-122,1013,2
166,-138,999,2
149,-154,980,2
147,-134,1001,2
159,-114,1037,2
182,-104,1058,2
181,-121,1036,2
174,-126,1018,2
184,-116,1014,2
195,-103,1038,2
214,-123,1022,2
198,-150,983,2
169,-151,962,2
175,-131,968,2
187,-122,983,2
187,-124,993,2
179,-131,1000,2
163,-133,1019,2
168,-127,1046,2
158,-129,1033,2
145,-128,1019,2
131,-131,990,2
102,-153,955,2
73,-140,953,2
78,-119,973,2
78,-127,980,2
80,-120,991,2
69,-115,998,2
67,-104,1016,2
71,-84,1044,2
51,-96,1041,2
55,-123,1012,2
46,-137,1020,2
62,-112,1058,2
65,-125,1055,2
53,-133,1034,2
29,-151,999,2
25,-150,997,2
40,-158,999,2
37,-156,996,2
15,-168,969,2
-2,-148,977,2
-10,-142,974,2
1,-122,1009,2
15,-127,1029,2
42,-112,1072,2
63,-129,1066,2
72,-150,1034,2
84,-142,998,2
72,-140,957,2
56,-117,960,2
63,-80,995,2
84,-51,1044,2
100,-31,1081,2
128,-55,1064,2
131,-102,1010,2
107,-155,970,2
100,-154,981,2
85,-152,1002,2
83,-125,1034,2
86,-114,1037,2
65,-112,1006,2
49,-86,1015,2
72,-73,1038,2
115,-57,1075,2
145,-93,1045,2
119,-159,964,2
118,-160,948,2
122,-145,954,2
120,-105,986,2
126,-98,1006,2
123,-111,1024,2
128,-119,1030,2
140,-126,1028,2
143,-139,1001,2
125,-131,970,2
91,-118,963,2
92,-86,1003,2
126,-39,1081,2
140,-73,1074,2
129,-130,1021,2
124,-181,969,2
130,-171,981,2
138,-168,1008,2
175,-165,1032,2
146,-200,1004,2
125,-230,973,2
119,-226,976,2
111,-214,965,2
112,-188,978,2
111,-190,975,2
123,-184,977,2
114,-188,969,2
110,-175,994,2
135,-163,1016,2
122,-171,1006,2
101,-151,1019,2
105,-138,1028,2
109,-118,1035,2
98,-121,1015,2
104,-118,1018,2
121,-116,1013,2
112,-118,1005,2
119,-117,1000,2
111,-123,991,2
107,-119,993,2
112,-103,1006,2
128,-100,1028,2
135,-113,1031,2
141,-120,1023,2
125,-130,1022,2
124,-137,1017,2
123,-125,1025,2
135,-131,1026,2
149,-143,1000,2
129,-160,960,2
110,-155,955,2
107,-155,964,2
125,-142,984,2
118,-132,1015,2
135,-134,1039,2
127,-173,1009,2
122,-181,1004,2
148,-169,1008,2
161,-158,1010,2
158,-164,988,2
152,-172,1011,2
132,-154,1030,2
152,-148,1017,2
180,-150,1082,2
210,-179,1010,2
213,-155,996,2
185,-91,1056,2
185,-71,1068,2
178,-110,1027,2
149,-137,988,2
99,-176,948,2
105,-178,965,2
139,-195,962,2
135,-214,951,2
133,-208,953,2
131,-226,936,2
141,-238,937,2
184,-246,1006,2
217,-299,1059,2
191,-370,1074,2
125,-368,1072,2
119,-367,1091,2
171,-358,1095,2
253,-418,1031,2
244,-403,867,2
218,-257,742,2
168,-185,752,2
169,-136,778,2
176,-136,850,2
174,-222,903,2
136,-259,954,2
85,-263,988,2
87,-260,989,2
104,-225,996,2
114,-235,1002,2
97,-264,986,2
80,-222,1031,2
108,-204,1097,2
152,-182,1115,2
160,-181,1094,2
121,-228,1009,2
85,-280,931,2
75,-301,929,2
88,-295,951,2
100,-312,957,2
112,-318,958,2
104,-323,941,2
104,-315,954,2
104,-300,956,2
80,-303,943,2
59,-292,960,2
72,-284,997,2
75,-270,1010,2
73,-245,1029,2
81,-219,1027,2
81,-232,1000,2
94,-203,1003,2
101,-210,1015,2
112,-217,1017,2
86,-253,999,2
108,-270,989,2
101,-284,950,2
90,-293,942,2
82,-265,959,2
95,-249,1002,2
118,-229,1036,2
105,-264,996,2
41,-290,969,2
31,-290,981,2
82,-283,1005,2
93,-318,953,2
64,-273,953,2
46,-246,946,2
12,-201,963,2
8,-165,998,2
28,-144,1028,2
52,-146,1058,2
62,-185,1066,2
77,-234,1076,2
99,-300,1067,2
110,-346,1045,2
124,-357,1009,2
121,-357,955,2
93,-380,895,2
63,-353,864,2
38,-304,882,2
59,-292,915,2
90,-303,936,2
100,-336,939,2
88,-340,971,2
142,-327,1051,2
158,-360,1014,2
113,-392,968,2
86,-387,939,2
97,-398,927,2
103,-397,914,2
72,-382,867,2
64,-370,896,2
87,-375,937,2
63,-363,975,2
64,-384,965,2
42,-437,918,2
61,-423,940,2
69,-434,965,2
73,-403,1013,2
89,-374,1043,2
92,-362,1014,2
82,-370,960,2
48,-352,900,2
39,-301,920,2
58,-277,953,2
87,-208,1054,2
171,-121,1173,2
208,-169,1109,2
180,-226,997,2
142,-228,925,2
133,-223,881,2
131,-215,877,2
126,-201,919,2
166,-183,973,2
196,-156,993,2
194,-173,956,2
153,-214,906,2
123,-231,899,2
105,-228,954,2
110,-212,1031,2
133,-175,1086,2
166,-120,1138,2
152,-165,1105,2
136,-162,1090,2
148,-186,1061,2
155,-242,986,2
138,-253,944,2
139,-227,939,2
135,-183,931,2
135,-146,927,2
160,-135,957,2
212,-124,989,2
243,-121,1004,2
260,-134,1007,2
229,-131,1001,2
198,-117,1031,2
217,-103,1055,2
230,-120,1042,2
251,-100,1038,2
229,-113,976,2
194,-123,946,2
187,-89,963,2
200,-105,960,2
220,-131,954,2
231,-129,985,2
231,-129,1002,2
233,-131,1007,2
254,-151,984,2
241,-168,953,2
194,-145,937,2
177,-104,990,2
218,-85,1023,2
249,-80,1012,2
245,-87,988,2
224,-86,968,2
236,-97,949,2
269,-110,950,2
286,-106,972,2
269,-90,994,2
252,-31,1074,2
270,-28,1074,2
262,-53,1020,2
223,-67,956,2
196,-38,943,2
212,-21,956,2
263,85,1008,2
256,-8,1005,2
265,16,986,2
236,-41,962,2
213,-18,960,2
203,-21,973,2
222,-38,994,2
238,-40,1004,2
207,-65,988,2
185,-75,989,2
188,-64,1006,2
212,-49,994,2
190,-62,972,2
174,-38,1001,2
217,-36,1013,2
197,-77,984,2
166,-72,1006,2
192,-55,1058,2
220,-73,1064,2
197,-97,1023,2
156,-109,980,2
129,-102,958,2
114,-66,954,2
99,-27,973,2
113,1,995,2
128,-6,974,2
128,1,972,2
124,26,988,2
135,67,1017,2
167,71,1041,2
207,57,1056,2
225,37,1043,2
201,14,1013,2
173,7,999,2
135,-1,1005,2
137,1,1034,2
136,-4,1028,2
116,6,1036,2
102,0,1021,2
106,4,1001,2
73,-12,964,2
70,2,968,2
96,5,990,2
111,-7,1009,2
127,-29,1022,2
138,-56,1031,2
174,-70,1023,2
149,-74,988,2
110,-48,979,2
86,-26,1008,2
139,20,1094,2
155,-14,1065,2
107,-19,1054,2
72,-16,1044,2
91,0,1058,2
122,0,1050,2
135,-26,1005,2
99,-42,960,2
74,-37,948,2
42,-36,947,2
57,6,1014,2
97,21,1058,2
74,-25,1012,2
41,-27,990,2
5,-31,982,2
29,-8,1030,2
86,7,1064,2
125,-8,1042,2
77,-47,982,2
35,-35,965,2
24,-25,984,2
80,21,1087,2
128,17,1100,2
114,-57,1012,2
42,-67,954,2
2,-28,949,2
2,14,1002,2
42,57,1085,2
78,23,1081,2
59,-16,1032,2
21,-36,967,2
-10,-11,962,2
10,18,977,2
-6,10,985,2
-32,25,1041,2
-23,62,1119,2
25,66,1131,2
71,22,1078,2
46,-37,982,2
8,-24,950,2
-2,3,946,2
49,41,982,2
49,22,975,2
41,-5,981,2
26,-22,1000,2
52,-36,1018,2
38,-28,1024,2
36,-15,1057,2
46,-19,1072,2
81,-22,1064,2
87,-54,1011,2
42,-73,976,2
55,-53,997,2
68,-51,1021,2
98,-41,1018,2
60,-66,973,2
9,-43,992,2
21,-17,1036,2
68,-3,1082,2
81,-34,1062,2
50,-59,1035,2
40,-46,1010,2
45,-25,1004,2
48,-25,993,2
51,-27,994,2
71,-31,1014,2
97,-46,997,2
60,-41,981,2
49,-41,981,2
64,-16,1020,2
106,-2,1056,2
115,-20,1040,2
101,-33,1025,2
94,-36,1009,2
81,-31,995,2
105,-8,1017,2
90,-30,994,2
110,-4,1007,2
94,-27,993,2
100,-22,1021,2
110,-23,1021,2
126,-21,1022,2
104,-31,981,2
58,-30,967,2
64,-13,1002,2
118,1,1054,2
130,-1,1077,2
110,3,1059,2
81,17,1030,2
93,41,1002,2
61,38,970,2
79,59,987,2
93,40,978,2
117,54,1005,2
144,32,983,2
92,1,963,2
79,23,992,2
125,53,1050,2
139,35,1052,2
102,11,1024,2
50,15,1019,2
45,52,1067,2
106,57,1090,2
110,16,1048,2
72,0,1026,2
111,32,1045,2
123,35,1005,2
121,58,993,2
96,55,962,2
113,67,979,2
131,35,976,2
102,20,982,2
58,33,1010,2
65,59,1061,2
91,100,1126,2
84,92,1130,2
108,57,1087,2
78,14,996,2
49,28,958,2
46,58,954,2
86,71,980,2
101,56,979,2
90,46,984,2
82,61,995,2
65,72,995,2
55,99,1018,2
66,120,1048,2
113,124,1053,2
119,105,1009,2
93,86,959,2
71,89,947,2
89,101,977,2
132,127,1003,2
122,78,1029,2
76,96,1067,2
52,64,1056,2
63,85,998,2
48,45,1000,2
49,21,958,2
45,36,973,2
60,64,1038,2
106,43,1038,2
112,2,969,2
83,-12,938,2
75,14,932,2
81,69,973,2
104,107,1023,2
109,70,1017,2
90,64,1034,2
88,83,1093,2
127,119,1141,2
175,112,1128,2
145,100,1036,2
88,107,992,2
50,128,1005,2
79,159,1008,2
89,152,1009,2
104,114,974,2
63,77,986,2
90,68,1028,2
125,58,1044,2
139,40,1033,2
128,1,1011,2
118,-7,1018,2
104,-24,1023,2
101,-4,1078,2
99,30,1091,2
74,27,1070,2
46,32,1078,2
50,43,1083,2
100,25,1039,2
78,8,997,2
50,12,964,2
47,27,965,2
71,16,981,2
82,-8,972,2
40,-41,972,2
21,-43,1014,2
38,-43,1044,2
23,-52,1055,2
12,-52,1049,2
-24,-54,1020,2
-21,-29,1016,2
-4,-37,968,2
-14,-25,962,2
-11,-11,978,2
7,19,1015,2
49,27,1041,2
44,-13,1002,2
-17,-7,992,2
-35,38,1034,2
5,76,1068,2
14,73,1085,2
20,56,1091,2
41,29,1076,2
59,21,1070,2
80,25,1046,2
71,35,1003,2
47,46,966,2
45,28,945,2
54,26,935,2
55,18,940,2
55,14,957,2
45,4,994,2
62,37,1066,2
81,22,1072,2
79,-2,1067,2
46,-54,1007,2
0,-9,1021,2
12,38,1073,2
66,54,1095,2
43,7,1053,2
4,9,1054,2
42,12,1077,2
94,2,1090,2
97,-71,1026,2
87,-102,993,2
87,-115,953,2
61,-93,928,2
35,-57,927,2
1,-24,947,2
28,0,991,2
63,16,1019,2
89,-10,988,2
38,-49,969,2
40,-51,1026,2
107,-41,1096,2
146,-58,1104,2
106,-88,1065,2
51,-64,1049,2
68,-20,1045,2
51,4,1044,2
76,30,1069,2
81,-2,1031,2
76,-4,1026,2
54,2,1018,2
68,46,1056,2
113,63,1064,2
126,60,1033,2
112,26,960,2
58,13,912,2
32,21,939,2
88,31,1000,2
141,33,1051,2
142,-2,1070,2
118,-26,1088,2
129,-34,1086,2
103,0,1046,2
97,35,1008,2
67,44,979,2
88,71,1026,2
145,81,1070,2
183,61,1078,2
143,45,1056,2
119,78,1048,2
105,108,1035,2
110,137,1040,2
119,119,1019,2
101,99,1005,2
84,73,991,2
97,66,1003,2
115,45,1010,2
119,40,1037,2
145,40,1058,2
177,24,1041,2
154,9,1013,2
124,26,1021,2
156,52,1056,2
195,47,1046,2
162,14,990,2
83,20,970,2
59,58,1016,2
104,106,1115,2
131,87,1118,2
108,23,1072,2
74,-15,1002,2
43,3,980,2
47,10,1004,2
67,6,1032,2
83,0,1053,2
93,-6,1060,2
79,-39,1019,2
61,-24,1002,2
48,4,994,2
25,20,999,2
5,34,1031,2
21,26,1056,2
15,11,1070,2
20,21,1090,2
21,-2,1075,2
6,8,1058,2
14,10,1049,2
28,9,1022,2
6,15,1024,2
1,18,1038,2
48,24,1047,2
28,-21,1011,2
12,-23,1032,2
50,-17,1054,2
76,-21,1028,2
46,-35,978,2
-28,-41,984,2
1,-4,1055,2
69,0,1093,2
50,-66,1060,2
-8,-88,1064,2
-13,-68,1092,2
13,-28,1090,2
15,-57,1051,2
2,-78,1014,2
-12,-87,978,2
-42,-64,988,2
-19,-32,1036,2
45,-36,1060,2
37,-85,1026,2
14,-93,1032,2
0,-102,995,2
-32,-85,979,2
-45,-70,990,2
-40,-47,1026,2
-27,-46,1051,2
-43,-75,1055,2
-57,-97,1050,2
-58,-92,1054,2
-47,-88,1053,2
-94,-113,1034,2
-137,-99,1054,2
-110,-83,1069,2
-107,-101,1035,2
-128,-92,1019,2
-117,-100,996,2
-115,-111,968,2
-119,-109,972,2
-103,-108,988,2
-76,-91,1034,2
-66,-87,1079,2
-45,-85,1098,2
-47,-116,1076,2
-38,-152,1040,2
-54,-180,976,2
-98,-172,942,2
-126,-168,941,2
-124,-170,960,2
-119,-181,993,2
-116,-176,1029,2
-148,-159,1053,2
-138,-107,1092,2
-124,-89,1069,2
-148,-71,1033,2
-166,-44,1016,2
-169,-20,1042,2
-109,-17,1077,2
-75,-56,1070,2
-77,-114,1029,2
-93,-131,985,2
-99,-101,961,2
-89,-78,961,2
-85,-67,975,2
-83,-66,1002,2
-103,-81,1044,2
-110,-90,1093,2
-100,-90,1158,2
-54,-123,1150,2
-24,-159,1082,2
-69,-181,950,2
-117,-133,905,2
-135,-113,907,2
-113,-89,981,2
-73,-78,1063,2
-65,-124,1086,2
-96,-175,1086,2
-113,-192,1061,2
-118,-167,1045,2
-126,-145,1024,2
-143,-147,1002,2
-144,-151,1016,2
-110,-176,1010,2
-120,-204,972,2
-154,-203,940,2
-192,-201,917,2
-194,-176,962,2
-190,-192,975,2
-184,-200,995,2
-249,-210,1022,2
-282,-199,1066,2
-124,-181,1064,2
-63,-197,1009,2
-142,-235,945,2
-385,-212,1041,2
-80,-221,939,2
-69,-192,948,2
-105,-237,948,2
-108,-257,938,2
-210,-248,957,2
-264,-250,981,2
-185,-248,1008,2
-356,-231,1179,2
-254,-251,1170,2
-91,-255,1075,2
-3,-264,972,2
-109,-261,928,2
-46,-257,873,2
-72,-244,837,2
-157,-226,879,2
-353,-223,987,2
-58,-221,978,2
-216,-222,1076,2
34,-256,994,2
-139,-239,1046,2
-210,-279,1009,2
-147,-253,949,2
-194,-238,918,2
-262,-237,930,2
-206,-253,944,2
-334,-239,1040,2
-273,-276,1045,2
-97,-278,980,2
-193,-291,991,2
-259,-316,1019,2
-353,-250,1103,2
-300,-256,1054,2
-180,-260,1025,2
-166,-270,909,2
-214,-318,961,2
-127,-269,942,2
-102,-217,1010,2
-94,-290,950,2
-87,-287,908,2
-118,-317,845,2
-133,-308,832,2
-136,-272,890,2
-88,-255,1010,2
-34,-239,1066,2
-4,-290,1044,2
-55,-376,925,2
-98,-369,875,2
-146,-405,871,2
-176,-395,964,2
-160,-357,1103,2
-147,-366,1157,2
-131,-337,1124,2
-167,-295,1043,2
-160,-344,954,2
-114,-360,897,2
-84,-363,871,2
-79,-338,897,2
-64,-292,942,2
-46,-272,987,2
-49,-247,1011,2
-69,-263,1009,2
-77,-267,992,2
-68,-263,981,2
-49,-228,967,2
-94,-246,907,2
-135,-255,897,2
-121,-247,932,2
-94,-287,1067,2
13,-270,1082,2
18,-320,1034,2
-18,-313,984,2
-66,-328,937,2
-75,-308,929,2
-42,-287,949,2
-1,-243,977,2
52,-196,1016,2
83,-200,1035,2
118,-219,1036,2
138,-221,1043,2
146,-308,1012,2
181,-326,1037,2
228,-305,1044,2
207,-329,988,2
142,-347,911,2
96,-287,888,2
83,-251,944,2
133,-133,1030,2
153,-65,1036,2
145,-161,986,2
130,-235,939,2
129,-239,939,2
154,-226,981,2
165,-270,979,2
133,-305,943,2
97,-292,932,2
49,-269,942,2
61,-249,978,2
97,-267,998,2
100,-273,1019,2
101,-263,1046,2
114,-264,1057,2
119,-287,1027,2
107,-276,992,2
94,-258,946,2
69,-237,904,2
50,-219,895,2
73,-210,914,2
100,-227,929,2
114,-215,966,2
151,-185,1040,2
184,-233,1066,2
209,-281,1058,2
194,-264,1041,2
140,-263,986,2
91,-242,953,2
67,-208,962,2
79,-195,974,2
66,-194,999,2
46,-200,1011,2
26,-217,1014,2
43,-213,1025,2
18,-246,983,2
-11,-240,981,2
13,-235,1002,2
76,-248,1029,2
105,-283,1027,2
102,-325,1005,2
85,-334,970,2
44,-299,958,2
22,-266,978,2
22,-249,992,2
6,-222,1012,2
-20,-202,1014,2
-20,-202,1006,2
-26,-236,983,2
-25,-245,1003,2
-1,-272,1025,2
17,-286,1028,2
19,-319,1002,2
14,-309,978,2
2,-274,973,2
-23,-260,961,2
-42,-241,953,2
-48,-208,987,2
-30,-199,1014,2
-6,-211,1015,2
-6,-241,1011,2
23,-281,992,2
51,-307,995,2
77,-337,987,2
84,-337,963,2
57,-308,946,2
12,-284,918,2
-31,-247,922,2
-61,-232,950,2
-46,-195,1022,2
-11,-179,1079,2
-26,-221,1061,2
-10,-245,1041,2
1,-295,984,2
-23,-303,950,2
-27,-281,983,2
16,-227,1054,2
59,-193,1111,2
41,-233,1046,2
13,-245,970,2
1,-215,929,2
7,-191,912,2
14,-186,928,2
42,-162,972,2
63,-170,1008,2
55,-223,999,2
33,-270,982,2
13,-324,977,2
35,-320,1008,2
50,-314,1014,2
50,-290,1003,2
20,-271,976,2
13,-255,976,2
27,-251,969,2
13,-247,980,2
25,-237,1009,2
55,-206,1050,2
64,-225,1054,2
36,-256,1006,2
-4,-269,960,2
-13,-243,959,2
2,-205,978,2
24,-175,1006,2
28,-197,1000,2
28,-225,1002,2
23,-289,978,2
5,-292,991,2
0,-307,984,2
-17,-297,987,2
0,-266,1009,2
34,-250,1015,2
13,-257,978,2
-6,-267,919,2
-38,-289,861,2
-52,-267,881,2
-38,-258,937,2
-19,-230,1005,2
-48,-193,1061,2
-54,-201,1084,2
-47,-241,1066,2
-34,-273,1041,2
-21,-299,1005,2
-55,-309,961,2
-45,-277,947,2
-49,-269,942,2
-29,-245,969,2
-5,-249,959,2
-22,-270,927,2
-50,-259,937,2
-10,-248,987,2
23,-205,1055,2
24,-217,1061,2
-22,-244,1017,2
-16,-226,1036,2
17,-245,1039,2
27,-264,1041,2
15,-314,994,2
7,-293,958,2
-13,-259,949,2
12,-248,966,2
45,-258,988,2
54,-294,982,2
27,-307,958,2
-8,-306,940,2
-8,-287,959,2
6,-281,995,2
31,-273,1030,2
34,-288,1020,2
1,-290,980,2
-13,-263,976,2
5,-233,1015,2
32,-226,1051,2
52,-224,1068,2
32,-263,1025,2
38,-269,994,2
30,-280,950,2
9,-263,927,2
-1,-252,913,2
-6,-246,920,2
-10,-245,941,2
-7,-234,998,2
25,-215,1055,2
22,-249,1043,2
-6,-274,1003,2
-17,-267,978,2
2,-241,991,2
4,-250,982,2
9,-232,986,2
-10,-230,958,2
-12,-183,988,2
19,-164,1002,2
28,-171,993,2
8,-193,986,2
33,-173,1012,2
75,-180,1024,2
53,-215,1006,2
36,-226,1028,2
71,-220,1060,2
73,-234,1059,2
25,-230,1042,2
14,-195,1045,2
31,-175,1055,2
65,-173,1074,2
67,-229,1026,2
43,-244,980,2
41,-245,940,2
18,-234,901,2
-27,-239,884,2
-15,-233,938,2
48,-236,1046,2
69,-276,1104,2
48,-305,1115,2
40,-362,1071,2
53,-336,1056,2
47,-289,1024,2
26,-228,991,2
15,-194,962,2
18,-170,953,2
12,-192,923,2
-19,-230,894,2
-20,-255,921,2
23,-286,984,2
80,-272,1055,2
52,-269,1066,2
17,-283,1032,2
1,-264,1002,2
4,-227,995,2
27,-207,1005,2
34,-195,1003,2
22,-205,1002,2
17,-203,1012,2
19,-209,1039,2
40,-210,1071,2
50,-236,1052,2
43,-269,991,2
23,-268,940,2
62,-231,953,2
101,-230,966,2
113,-219,986,2
101,-241,972,2
80,-278,942,2
37,-292,930,2
32,-292,962,2
47,-308,992,2
61,-318,1002,2
31,-326,983,2
13,-312,986,2
6,-286,1004,2
13,-240,1047,2
38,-208,1083,2
43,-216,1062,2
33,-220,1012,2
22,-222,970,2
34,-187,959,2
57,-184,956,2
66,-185,955,2
71,-208,957,2
86,-229,984,2
110,-246,1001,2
83,-289,994,2
72,-341,972,2
56,-343,967,2
21,-335,961,2
6,-289,978,2
-1,-268,993,2
21,-235,1026,2
15,-232,1042,2
36,-242,1059,2
44,-266,1055,2
39,-290,1037,2
43,-299,1018,2
50,-283,1006,2
51,-250,992,2
86,-214,996,2
95,-234,950,2
71,-259,892,2
58,-265,878,2
91,-266,932,2
159,-271,1010,2
160,-363,1033,2
88,-469,971,2
17,-507,916,2
-22,-472,924,2
4,-385,994,2
67,-286,1089,2
76,-211,1116,2
45,-215,1036,2
30,-199,967,2
58,-168,973,2
103,-173,986,2
87,-210,958,2
70,-243,972,2
94,-290,1056,2
138,-376,1036,2
85,-393,980,2
63,-334,958,2
43,-276,943,2
52,-247,953,2
62,-243,984,2
83,-236,1014,2
92,-271,1023,2
118,-289,1033,2
142,-296,1034,2
118,-304,1008,2
80,-291,984,2
53,-262,979,2
70,-211,1024,2
95,-187,1065,2
90,-227,1031,2
64,-250,1001,2
79,-271,978,2
115,-252,981,2
102,-267,970,2
106,-239,988,2
111,-228,989,2
88,-219,981,2
78,-212,983,2
89,-182,1014,2
91,-190,1022,2
97,-179,1042,2
85,-190,1045,2
84,-223,1022,2
55,-252,1004,2
54,-285,1002,2
74,-249,1026,2
80,-217,1036,2
89,-180,1039,2
83,-175,1008,2
72,-183,973,2
82,-176,985,2
140,-180,1005,2
150,-208,976,2
112,-217,966,2
115,-223,961,2
141,-188,990,2
130,-184,1016,2
119,-162,1045,2
97,-180,1054,2
94,-165,1075,2
94,-170,1064,2
55,-187,1029,2
68,-178,1012,2
83,-163,1001,2
62,-180,986,2
62,-170,992,2
88,-173,1013,2
90,-192,1022,2
94,-200,1005,2
46,-201,972,2
42,-157,978,2
57,-120,1011,2
116,-96,1052,2
96,-140,1027,2
93,-189,992,2
69,-233,964,2
66,-215,992,2
85,-181,1028,2
86,-141,1075,2
80,-146,1073,2
48,-169,1026,2
23,-171,994,2
16,-166,987,2
10,-157,991,2
27,-138,1028,2
52,-156,1028,2
37,-187,1014,2
23,-208,1016,2
41,-208,1035,2
59,-225,1023,2
35,-211,998,2
16,-205,970,2
20,-188,966,2
33,-178,993,2
69,-191,1011,2
92,-218,1013,2
78,-270,987,2
71,-264,995,2
95,-237,1022,2
78,-219,1013,2
64,-188,1012,2
61,-191,999,2
66,-198,990,2
39,-246,957,2
13,-256,955,2
12,-254,984,2
39,-239,1025,2
48,-224,1042,2
24,-252,1008,2
19,-247,992,2
44,-259,990,2
69,-287,994,2
76,-315,992,2
66,-351,969,2
52,-374,951,2
22,-360,942,2
11,-305,971,2
5,-260,1009,2
30,-225,1032,2
12,-244,996,2
10,-247,984,2
26,-262,962,2
35,-257,975,2
49,-274,973,2
31,-292,970,2
29,-304,991,2
52,-301,1016,2
63,-294,1031,2
54,-295,1002,2
29,-271,974,2
53,-261,989,2
88,-264,1006,2
106,-303,968,2
46,-336,927,2
26,-307,947,2
63,-241,1024,2
88,-246,1049,2
70,-243,1033,2
20,-291,964,2
6,-289,929,2
3,-273,934,2
17,-268,944,2
21,-250,982,2
24,-250,1006,2
39,-254,1037,2
71,-257,1068,2
89,-266,1059,2
85,-285,1023,2
71,-274,990,2
78,-255,977,2
75,-274,951,2
72,-257,970,2
96,-262,976,2
78,-256,983,2
54,-265,987,2
58,-264,987,2
28,-302,958,2
17,-293,951,2
3,-285,954,2
35,-255,1009,2
61,-242,1045,2
39,-284,1048,2
55,-305,1053,2
68,-303,1024,2
58,-278,1011,2
55,-273,972,2
43,-221,977,2
65,-223,986,2
55,-224,986,2
36,-262,960,2
39,-281,954,2
61,-278,971,2
90,-257,997,2
103,-250,1035,2
110,-238,1058,2
103,-276,1024,2
52,-297,959,2
7,-283,945,2
20,-279,963,2
21,-261,1002,2
15,-238,1054,2
29,-272,1044,2
21,-302,1008,2
12,-329,956,2
3,-323,930,2
8,-304,935,2
40,-285,956,2
48,-256,974,2
50,-238,995,2
63,-252,1003,2
79,-257,1007,2
40,-288,1005,2
-4,-269,1042,2
30,-197,1123,2
72,-212,1121,2
25,-293,983,2
-46,-307,909,2
-43,-298,919,2
-3,-278,942,2
0,-281,955,2
-10,-288,965,2
25,-309,984,2
84,-301,1020,2
135,-311,1037,2
140,-365,999,2
100,-376,943,2
45,-308,953,2
42,-294,943,2
43,-297,918,2
34,-288,895,2
8,-309,873,2
24,-319,940,2
64,-347,1031,2
74,-316,1116,2
59,-337,1146,2
68,-354,1115,2
92,-353,1079,2
143,-341,1047,2
184,-321,989,2
182,-318,916,2
159,-296,855,2
125,-263,820,2
107,-239,840,2
99,-224,883,2
91,-231,922,2
32,-293,914,2
-8,-321,947,2
3,-368,995,2
36,-419,1027,2
16,-479,1022,2
9,-473,1028,2
-10,-437,1007,2
36,-345,1018,2
74,-255,1049,2
119,-183,1067,2
137,-170,1058,2
103,-229,967,2
41,-259,893,2
-9,-250,889,2
-9,-237,929,2
0,-272,969,2
18,-301,996,2
-2,-348,972,2
-16,-364,955,2
-9,-359,957,2
13,-329,984,2
43,-319,996,2
33,-318,997,2
32,-334,991,2
32,-333,986,2
25,-337,969,2
21,-327,950,2
11,-315,941,2
38,-276,982,2
60,-249,1019,2
39,-263,1029,2
57,-284,1022,2
27,-336,969,2
15,-346,954,2
-10,-352,942,2
-30,-318,947,2
-51,-292,955,2
-16,-222,1028,2
43,-165,1093,2
46,-221,1061,2
25,-277,1010,2
19,-330,958,2
30,-353,946,2
42,-360,947,2
37,-354,940,2
11,-340,942,2
-4,-335,942,2
-11,-328,953,2
-6,-304,983,2
22,-260,1019,2
0,-282,983,2
-35,-313,959,2
-29,-343,961,2
8,-351,989,2
29,-382,991,2
-11,-419,946,2
-20,-392,942,2
-19,-380,915,2
-18,-346,917,2
-2,-323,921,2
1,-314,914,2
-11,-319,908,2
-11,-317,913,2
17,-294,939,2
52,-295,980,2
55,-333,1009,2
32,-349,1031,2
23,-340,1052,2
15,-323,1046,2
-15,-302,1014,2
-40,-270,993,2
-25,-245,994,2
-12,-265,970,2
-10,-277,946,2
5,-286,945,2
29,-316,939,2
57,-321,970,2
53,-354,954,2
28,-347,942,2
-13,-358,950,2
23,-320,986,2
38,-294,1026,2
18,-313,1032,2
12,-354,1014,2
14,-373,1014,2
31,-365,1017,2
36,-341,997,2
-1,-326,946,2
-11,-267,925,2
-6,-249,918,2
13,-241,943,2
17,-282,950,2
1,-320,947,2
-11,-319,983,2
0,-329,1038,2
23,-343,1075,2
-5,-377,1049,2
-33,-366,988,2
-33,-317,946,2
-24,-301,904,2
12,-275,930,2
41,-273,964,2
57,-284,988,2
33,-336,960,2
26,-351,956,2
43,-290,992,2
49,-262,989,2
18,-231,991,2
14,-214,984,2
10,-146,1028,2
22,-163,1006,2
53,-95,1023,2
38,-97,1037,2
89,-78,1050,2
64,-122,984,2
53,-126,969,2
67,-120,979,2
78,-112,985,2
61,-103,987,2
64,-98,1005,2
58,-127,1004,2
64,-131,1013,2
72,-108,1042,2
72,-116,1057,2
85,-157,1044,2
88,-194,1027,2
97,-211,1014,2
106,-231,971,2
95,-215,943,2
96,-168,952,2
115,-148,975,2
126,-150,993,2
120,-176,998,2
110,-190,994,2
98,-203,989,2
85,-216,980,2
66,-217,974,2
55,-219,1000,2
55,-226,1026,2
49,-267,1029,2
75,-269,1036,2
71,-272,1002,2
51,-243,976,2
51,-210,974,2
73,-157,995,2
72,-143,1012,2
113,-147,1029,2
104,-197,1005,2
94,-224,992,2
105,-228,993,2
100,-237,979,2
83,-233,957,2
68,-207,960,2
72,-200,977,2
89,-189,1006,2
110,-181,1031,2
99,-216,1016,2
116,-175,1030,2
109,-178,998,2
101,-163,981,2
79,-184,944,2
69,-180,936,2
56,-166,961,2
75,-142,1004,2
84,-128,1046,2
65,-168,1045,2
59,-165,1043,2
53,-167,1024,2
79,-132,1018,2
66,-133,998,2
100,-119,1014,2
101,-139,998,2
105,-163,1000,2
111,-184,1000,2
117,-182,1000,2
79,-203,964,2
41,-191,940,2
21,-164,941,2
37,-128,993,2
82,-63,1055,2
76,-119,1072,2
107,-155,1100,2
123,-218,1085,2
126,-250,1045,2
79,-264,982,2
68,-198,957,2
61,-164,957,2
89,-137,988,2
80,-151,987,2
54,-184,979,2
63,-209,985,2
78,-231,993,2
94,-243,997,2
76,-246,1002,2
87,-234,1020,2
92,-229,1021,2
71,-214,999,2
49,-183,984,2
42,-138,1012,2
77,-90,1074,2
97,-128,1075,2
80,-207,1024,2
49,-271,955,2
56,-263,945,2
66,-249,941,2
48,-241,931,2
22,-225,936,2
31,-185,966,2
39,-174,996,2
46,-177,1043,2
57,-183,1078,2
67,-220,1056,2
50,-230,1014,2
54,-208,972,2
77,-162,958,2
47,-165,950,2
42,-107,994,2
47,-84,1028,2
71,-43,1072,2
106,-65,1053,2
100,-124,995,2
89,-169,941,2
96,-162,938,2
91,-156,956,2
81,-152,998,2
96,-151,1059,2
135,-161,1101,2
130,-197,1105,2
127,-177,1085,2
88,-170,1027,2
72,-137,1003,2
80,-108,1011,2
117,-85,1050,2
144,-103,1047,2
127,-166,1003,2
85,-231,934,2
45,-257,895,2
45,-230,907,2
41,-166,983,2
68,-109,1059,2
115,-129,1086,2
142,-255,1053,2
127,-308,1036,2
103,-370,979,2
92,-356,967,2
117,-290,1009,2
131,-249,1009,2
89,-241,983,2
59,-233,964,2
55,-220,946,2
37,-217,936,2
46,-204,959,2
67,-200,992,2
85,-207,1020,2
78,-232,1038,2
85,-270,1028,2
73,-277,1016,2
73,-251,1014,2
64,-235,990,2
44,-203,998,2
52,-213,999,2
42,-234,997,2
28,-252,994,2
45,-260,1006,2
75,-247,1024,2
97,-269,1036,2
101,-314,1019,2
94,-335,989,2
53,-376,922,2
31,-338,902,2
23,-308,897,2
33,-262,924,2
25,-248,940,2
22,-234,970,2
5,-265,982,2
14,-277,1011,2
28,-303,1018,2
20,-319,997,2
-3,-322,966,2
-13,-323,955,2
22,-303,973,2
39,-295,996,2
69,-241,1068,2
105,-244,1108,2
116,-293,1075,2
84,-322,995,2
52,-274,941,2
52,-213,929,2
69,-169,926,2
72,-165,935,2
58,-215,921,2
62,-245,939,2
99,-295,959,2
95,-335,948,2
58,-358,955,2
31,-390,965,2
37,-378,1004,2
10,-382,1007,2
-18,-328,1017,2
-14,-263,1027,2
14,-189,1075,2
47,-177,1102,2
56,-214,1104,2
84,-275,1071,2
91,-318,1004,2
98,-321,930,2
105,-266,894,2
124,-221,884,2
117,-213,879,2
108,-224,899,2
116,-244,940,2
120,-259,990,2
133,-287,1030,2
101,-364,1033,2
58,-427,1010,2
22,-438,986,2
14,-378,991,2
37,-320,1010,2
91,-228,1058,2
58,-194,1038,2
28,-183,1010,2
15,-208,969,2
41,-205,987,2
89,-205,1020,2
142,-201,1063,2
154,-273,1040,2
144,-318,999,2
138,-303,982,2
130,-273,972,2
120,-250,965,2
86,-260,949,2
72,-278,935,2
40,-305,920,2
30,-322,934,2
53,-314,991,2
87,-305,1073,2
114,-308,1132,2
108,-322,1110,2
101,-292,1051,2
87,-242,993,2
76,-192,960,2
87,-169,964,2
95,-185,980,2
91,-228,983,2
68,-275,984,2
71,-323,984,2
63,-344,978,2
76,-328,982,2
94,-319,980,2
100,-302,998,2
114,-274,1026,2
117,-276,1045,2
113,-285,1052,2
126,-276,1027,2
84,-267,962,2
29,-242,926,2
27,-227,941,2
31,-235,978,2
30,-248,1015,2
18,-276,1031,2
64,-287,1055,2
98,-284,1051,2
120,-295,1036,2
118,-309,1006,2
140,-281,1005,2
133,-271,978,2
120,-244,969,2
109,-237,969,2
139,-222,994,2
108,-235,976,2
95,-232,973,2
83,-260,981,2
113,-224,1021,2
141,-218,1058,2
159,-227,1064,2
170,-216,1043,2
157,-187,1017,2
159,-177,1008,2
168,-185,986,2
148,-199,967,2
158,-222,976,2
164,-226,994,2
138,-235,993,2
113,-221,1003,2
113,-205,1031,2
134,-201,1039,2
134,-194,1039,2
114,-200,1013,2
139,-163,1015,2
130,-145,1021,2
115,-137,1024,2
128,-137,1030,2
119,-159,1012,2
95,-174,999,2
89,-178,1004,2
115,-172,1030,2
118,-186,1018,2
105,-199,990,2
93,-204,981,2
110,-193,1004,2
132,-208,1029,2
117,-237,1024,2
112,-263,1001,2
87,-261,982,2
72,-230,976,2
75,-184,1001,2
59,-175,1008,2
52,-176,1008,2
46,-175,1027,2
47,-192,1028,2
50,-195,1035,2
38,-237,1026,2
35,-241,1033,2
52,-243,1039,2
64,-264,1031,2
62,-288,989,2
37,-278,947,2
26,-254,934,2
24,-229,953,2
65,-190,1025,2
94,-192,1059,2
87,-248,1033,2
113,-295,1018,2
123,-361,974,2
91,-371,923,2
18,-343,907,2
-9,-291,950,2
24,-258,1019,2
59,-208,1101,2
62,-243,1064,2
47,-264,989,2
7,-275,911,2
34,-223,937,2
109,-202,997,2
128,-199,1047,2
122,-270,1044,2
96,-324,1006,2
117,-279,1031,2
156,-233,1074,2
175,-190,1073,2
129,-216,995,2
66,-243,931,2
64,-238,933,2
66,-231,946,2
29,-240,949,2
3,-230,988,2
14,-231,1019,2
59,-238,1052,2
63,-272,1044,2
75,-273,1034,2
70,-274,1025,2
95,-259,1045,2
133,-250,1044,2
123,-250,1017,2
102,-256,993,2
96,-256,974,2
72,-267,930,2
36,-274,900,2
17,-273,894,2
11,-288,918,2
27,-263,969,2
31,-249,1024,2
43,-258,1038,2
61,-259,1038,2
73,-235,1053,2
99,-222,1084,2
118,-237,1100,2
110,-255,1084,2
82,-283,1026,2
36,-284,959,2
21,-245,930,2
4,-231,908,2
3,-224,915,2
-22,-257,917,2
-62,-263,961,2
0,-331,914,2
26,-299,960,2
55,-322,970,2
107,-259,1054,2
134,-249,1099,2
99,-233,1138,2
24,-276,1120,2
36,-259,1104,2
37,-282,1047,2
48,-293,984,2
16,-348,909,2
14,-355,903,2
23,-347,942,2
-13,-320,983,2
-3,-308,962,2
-18,-313,891,2
-41,-288,864,2
16,-238,985,2
142,-204,1147,2
212,-297,1188,2
198,-448,1039,2
143,-462,910,2
103,-386,813,2
66,-340,778,2
74,-280,837,2
39,-180,967,2
1,-147,1080,2
-6,-173,1145,2
-10,-312,1088,2
8,-440,1024,2
26,-492,986,2
1,-497,953,2
-7,-457,947,2
17,-396,938,2
61,-315,973,2
117,-257,1027,2
148,-250,1014,2
136,-279,967,2
114,-292,905,2
86,-283,874,2
86,-263,897,2
99,-281,905,2
75,-299,914,2
66,-324,938,2
56,-365,963,2
56,-402,994,2
48,-445,1029,2
38,-472,1011,2
29,-439,968,2
9,-388,894,2
-25,-320,899,2
-20,-259,959,2
17,-251,995,2
33,-278,1008,2
42,-304,1021,2
62,-354,1014,2
98,-362,1036,2
115,-378,1025,2
98,-387,962,2
64,-338,930,2
73,-279,956,2
110,-248,996,2
100,-259,994,2
62,-283,973,2
51,-307,951,2
77,-317,973,2
101,-323,994,2
93,-332,1006,2
82,-362,987,2
80,-372,955,2
63,-341,926,2
61,-313,939,2
85,-294,981,2
76,-296,987,2
41,-328,981,2
26,-345,976,2
15,-353,973,2
7,-337,981,2
-18,-315,956,2
-40,-281,925,2
6,-302,897,2
98,-253,929,2
187,-222,956,2
244,-190,996,2
280,-199,1028,2
303,-182,1040,2
257,-164,1035,2
194,-165,962,2
177,-80,993,2
191,-83,994,2
194,-113,998,2
140,-139,999,2
108,-130,1021,2
80,-193,1004,2
102,-178,1021,2
107,-190,1018,2
132,-222,1017,2
158,-231,1006,2
160,-204,1003,2
158,-199,982,2
163,-195,972,2
180,-190,970,2
186,-156,991,2
172,-133,1002,2
137,-149,1001,2
140,-146,1027,2
152,-161,1036,2
147,-228,1019,2
137,-260,997,2
96,-285,963,2
94,-242,986,2
111,-191,1029,2
142,-204,1052,2
132,-257,1020,2
101,-285,959,2
74,-317,896,2
61,-283,898,2
61,-257,926,2
93,-217,976,2
125,-193,1027,2
170,-230,1048,2
195,-333,1036,2
215,-374,1019,2
191,-375,982,2
150,-355,923,2
106,-291,902,2
95,-258,892,2
68,-253,908,2
42,-248,946,2
44,-262,980,2
60,-276,1009,2
88,-285,1029,2
103,-285,1030,2
121,-275,1041,2
172,-237,1076,2
168,-293,1015,2
153,-287,973,2
125,-270,933,2
122,-215,942,2
120,-189,970,2
142,-164,1017,2
134,-221,1016,2
94,-300,979,2
63,-336,947,2
85,-306,949,2
118,-271,956,2
154,-215,1003,2
156,-209,1007,2
144,-196,1023,2
118,-222,1024,2
94,-278,992,2
89,-270,976,2
84,-271,953,2
113,-249,954,2
109,-241,973,2
119,-238,981,2
100,-255,989,2
83,-283,973,2
92,-274,979,2
112,-255,987,2
112,-235,986,2
117,-222,999,2
112,-223,999,2
111,-252,990,2
124,-266,978,2
86,-283,936,2
76,-266,945,2
93,-244,969,2
91,-230,977,2
80,-214,1004,2
88,-253,991,2
109,-219,1020,2
102,-258,1013,2
108,-249,1008,2
114,-220,1025,2
106,-226,1006,2
116,-209,994,2
116,-216,985,2
112,-200,977,2
94,-196,956,2
73,-209,942,2
106,-172,986,2
162,-139,1051,2
184,-198,1059,2
161,-281,1023,2
153,-288,982,2
145,-205,989,2
155,-137,1019,2
153,-95,1042,2
142,-145,1005,2
123,-185,974,2
114,-200,959,2
120,-190,978,2
140,-183,1008,2
135,-210,997,2
122,-204,1009,2
131,-190,1014,2
129,-147,1026,2
132,-129,1041,2
123,-124,1052,2
116,-138,1045,2
87,-176,997,2
54,-204,942,2
81,-163,964,2
99,-165,975,2
96,-141,1000,2
87,-138,1024,2
92,-150,1049,2
112,-168,1070,2
119,-204,1054,2
98,-233,998,2
85,-220,986,2
88,-205,982,2
79,-197,988,2
86,-206,989,2
85,-202,980,2
65,-212,958,2
62,-195,950,2
86,-175,957,2
99,-156,993,2
119,-143,1053,2
133,-164,1089,2
125,-211,1071,2
122,-235,1030,2
124,-227,1001,2
144,-196,997,2
122,-202,951,2
103,-163,952,2
114,-146,985,2
145,-129,1026,2
156,-128,1050,2
146,-178,1037,2
133,-233,1015,2
131,-254,1019,2
78,-248,1003,2
47,-241,1013,2
73,-215,1045,2
126,-239,1044,2
123,-235,1011,2
83,-203,970,2
95,-203,955,2
148,-224,961,2
162,-266,963,2
111,-307,948,2
75,-304,955,2
50,-274,971,2
60,-225,1003,2
59,-216,1031,2
66,-195,1062,2
82,-205,1065,2
92,-217,1049,2
108,-231,1025,2
108,-237,1003,2
112,-233,983,2
126,-221,983,2
138,-234,982,2
142,-238,980,2
129,-263,962,2
104,-283,941,2
76,-311,929,2
59,-313,940,2
35,-303,967,2
-1,-319,971,2
-11,-283,1005,2
16,-255,1028,2
52,-237,1036,2
77,-247,1023,2
97,-242,1023,2
126,-252,1033,2
127,-279,1038,2
143,-325,989,2
143,-317,951,2
153,-312,921,2
158,-298,911,2
113,-322,887,2
91,-341,885,2
68,-340,908,2
61,-339,950,2
59,-322,1013,2
54,-301,1061,2
55,-287,1060,2
55,-246,1052,2
86,-223,1052,2
133,-235,1053,2
155,-278,1037,2
154,-334,980,2
125,-316,945,2
117,-240,952,2
109,-208,957,2
102,-200,968,2
94,-252,945,2
85,-288,937,2
66,-319,936,2
70,-291,979,2
101,-251,1047,2
128,-225,1087,2
118,-240,1053,2
124,-245,1031,2
148,-252,1016,2
128,-255,1005,2
110,-272,983,2
113,-286,981,2
117,-296,998,2
114,-292,1009,2
66,-289,995,2
20,-267,989,2
35,-225,1012,2
80,-203,1042,2
107,-255,1033,2
97,-301,1006,2
79,-313,978,2
61,-277,979,2
54,-270,974,2
63,-274,956,2
78,-242,965,2
91,-218,989,2
99,-201,1035,2
100,-236,1034,2
113,-270,1035,2
150,-272,1033,2
117,-310,991,2
34,-302,946,2
-28,-280,957,2
-10,-310,960,2
-13,-325,979,2
-25,-284,1018,2
-17,-267,1039,2
-8,-249,1039,2
0,-206,1050,2
28,-204,1061,2
48,-228,1040,2
47,-249,1011,2
44,-241,1020,2
127,-244,1058,2
177,-308,998,2
105,-265,977,2
103,-261,951,2
95,-325,919,2
74,-303,934,2
42,-292,932,2
-4,-268,962,2
-4,-255,997,2
-17,-254,1031,2
-46,-230,1061,2
-36,-231,1071,2
-8,-209,1075,2
36,-247,1051,2
74,-259,1037,2
79,-303,1001,2
82,-292,999,2
108,-274,1007,2
112,-256,995,2
88,-231,966,2
65,-238,922,2
32,-239,904,2
18,-219,935,2
12,-201,965,2
11,-193,1018,2
48,-210,1072,2
71,-207,1108,2
44,-255,1091,2
43,-265,1077,2
83,-269,1042,2
76,-236,1016,2
78,-192,1013,2
92,-205,1017,2
69,-264,992,2
57,-293,985,2
55,-278,995,2
55,-296,994,2
32,-307,1006,2
22,-315,991,2
13,-310,974,2
-35,-318,915,2
-76,-264,915,2
17,-239,973,2
96,-214,1021,2
85,-293,1004,2
18,-306,1003,2
-11,-276,1026,2
-10,-240,1078,2
-2,-228,1106,2
-15,-221,1090,2
-28,-205,1074,2
-10,-238,1007,2
15,-211,984,2
24,-264,916,2
21,-239,929,2
33,-237,956,2
59,-227,978,2
55,-243,963,2
37,-259,954,2
46,-277,974,2
31,-270,998,2
-9,-287,1042,2
-42,-320,1079,2
-42,-367,1100,2
-10,-389,1085,2
-5,-357,1059,2
7,-298,991,2
-40,-260,925,2
-69,-179,947,2
-42,-139,988,2
22,-161,1030,2
46,-258,989,2
32,-304,973,2
20,-333,984,2
11,-328,1016,2
2,-302,1060,2
-8,-268,1084,2
-14,-253,1075,2
-28,-270,1052,2
-19,-287,1027,2
-47,-320,981,2
-75,-335,958,2
-26,-308,980,2
3,-315,970,2
22,-317,962,2
39,-322,923,2
31,-319,866,2
22,-317,853,2
20,-321,873,2
45,-290,959,2
15,-317,1032,2
-11,-362,1091,2
-1,-351,1154,2
-7,-367,1146,2
-16,-347,1106,2
-55,-330,1003,2
-76,-269,926,2
-67,-200,915,2
0,-152,935,2
72,-154,956,2
110,-191,984,2
177,-246,991,2
214,-304,990,2
215,-369,962,2
177,-369,949,2
135,-382,936,2
86,-370,939,2
41,-385,942,2
62,-394,989,2
43,-399,1035,2
-14,-379,1086,2
-34,-417,1024,2
-41,-316,996,2
-27,-275,968,2
42,-210,1012,2
137,-167,1089,2
168,-210,1079,2
176,-255,1028,2
174,-327,945,2
124,-378,854,2
57,-327,845,2
34,-290,870,2
36,-273,989,2
35,-331,1065,2
6,-435,1064,2
-23,-537,987,2
-17,-546,955,2
8,-472,961,2
-18,-420,942,2
9,-376,953,2
52,-367,984,2
98,-347,1032,2
134,-350,1022,2
122,-373,965,2
141,-356,942,2
157,-328,921,2
129,-317,911,2
118,-267,945,2
60,-267,954,2
20,-323,948,2
1,-386,925,2
-12,-419,929,2
-34,-442,947,2
-57,-473,946,2
-50,-447,980,2
-22,-442,993,2
12,-392,1025,2
31,-337,1029,2
42,-247,956,2
48,-187,962,2
50,-191,967,2
47,-202,997,2
8,-244,991,2
-13,-250,1011,2
18,-269,1021,2
43,-267,1047,2
66,-275,1083,2
56,-346,1052,2
33,-404,990,2
9,-424,930,2
-3,-380,902,2
-7,-344,883,2
-21,-338,875,2
-22,-340,891,2
0,-362,916,2
22,-367,957,2
22,-363,978,2
17,-373,980,2
29,-373,1007,2
36,-368,1020,2
11,-399,1004,2
-20,-415,958,2
-54,-380,935,2
-38,-330,935,2
-20,-283,958,2
3,-283,965,2
12,-312,952,2
36,-327,963,2
54,-348,975,2
53,-385,982,2
68,-413,987,2
94,-406,1015,2
109,-406,1016,2
89,-400,990,2
66,-398,928,2
29,-362,894,2
37,-350,895,2
47,-369,912,2
58,-419,939,2
38,-452,982,2
23,-475,1001,2
12,-453,994,2
0,-425,961,2
3,-382,963,2
37,-344,1010,2
65,-353,1037,2
82,-385,1047,2
106,-429,990,2
104,-431,949,2
89,-394,942,2
79,-395,911,2
51,-383,913,2
19,-393,905,2
-7,-399,902,2
-27,-391,927,2
-45,-397,936,2
-30,-363,984,2
3,-331,1031,2
16,-320,1050,2
33,-339,1040,2
52,-334,1028,2
81,-314,1027,2
89,-309,1033,2
112,-299,1024,2
106,-310,970,2
80,-286,922,2
80,-248,908,2
75,-244,919,2
94,-260,962,2
72,-320,982,2
58,-356,1001,2
51,-409,1007,2
70,-429,1032,2
88,-398,1067,2
112,-347,1085,2
93,-335,1015,2
58,-291,944,2
38,-250,893,2
69,-202,915,2
96,-198,955,2
93,-207,980,2
106,-241,1008,2
118,-274,1010,2
129,-263,1019,2
108,-292,993,2
96,-271,992,2
90,-261,990,2
93,-236,1023,2
110,-279,1017,2
82,-315,985,2
63,-315,960,2
71,-273,987,2
69,-281,981,2
42,-280,976,2
48,-289,976,2
82,-288,1007,2
82,-333,1000,2
61,-342,998,2
41,-337,993,2
68,-280,1019,2
61,-236,1021,2
44,-238,976,2
25,-241,945,2
61,-240,972,2
93,-239,1017,2
96,-281,1051,2
108,-374,1027,2
138,-368,1034,2
172,-318,1050,2
154,-273,1040,2
135,-250,1012,2
96,-259,968,2
94,-258,958,2
86,-257,969,2
93,-279,983,2
96,-287,1001,2
105,-301,999,2
111,-294,989,2
119,-281,989,2
136,-233,1027,2
108,-238,1029,2
58,-269,997,2
62,-273,975,2
68,-254,970,2
91,-218,1007,2
100,-212,1032,2
108,-222,1061,2
118,-267,1049,2
129,-275,1044,2
124,-274,1027,2
114,-236,1013,2
96,-221,987,2
62,-208,965,2
41,-202,963,2
55,-183,992,2
73,-193,1050,2
107,-211,1101,2
128,-265,1093,2
142,-322,1046,2
147,-350,984,2
169,-292,978,2
185,-262,970,2
190,-213,997,2
188,-208,1008,2
187,-210,1029,2
187,-252,1034,2
182,-295,1039,2
173,-328,1039,2
140,-370,996,2
112,-349,973,2
87,-338,937,2
108,-276,968,2
145,-263,995,2
178,-280,988,2
181,-323,937,2
184,-320,922,2
202,-302,941,2
217,-279,992,2
218,-260,1044,2
189,-286,1060,2
160,-304,1051,2
128,-272,1029,2
103,-240,992,2
87,-196,982,2
99,-185,983,2
118,-204,979,2
118,-271,963,2
119,-313,962,2
117,-327,993,2
132,-310,1038,2
156,-278,1067,2
167,-237,1061,2
158,-210,1036,2
179,-189,1050,2
229,-211,1068,2
216,-273,1049,2
196,-334,981,2
171,-308,936,2
171,-251,925,2
184,-242,909,2
158,-240,905,2
121,-282,892,2
110,-269,941,2
146,-233,1036,2
153,-261,1092,2
149,-287,1090,2
168,-238,1089,2
211,-158,1099,2
223,-101,1090,2
200,-116,1047,2
169,-119,1015,2
147,-117,1009,2
134,-122,1020,2
154,-100,1057,2
173,-157,1053,2
190,-206,1036,2
194,-252,1001,2
146,-297,943,2
146,-279,941,2
173,-275,962,2
219,-258,1023,2
241,-258,1068,2
218,-289,1058,2
187,-255,1033,2
137,-204,998,2
116,-184,995,2
103,-183,1013,2
68,-213,1023,2
57,-232,1018,2
76,-259,1003,2
101,-232,1018,2
111,-242,1003,2
103,-237,1010,2
124,-315,968,2
147,-347,943,2
169,-363,932,2
166,-343,942,2
137,-319,994,2
155,-297,1062,2
191,-240,1131,2
169,-272,1129,2
135,-290,1078,2
118,-309,1036,2
89,-302,1028,2
86,-236,1039,2
60,-181,1029,2
96,-166,1004,2
196,-238,932,2
280,-270,899,2
349,-298,953,2
357,-292,946,2
313,-302,970,2
307,-348,964,2
265,-306,968,2
278,-311,954,2
285,-300,949,2
327,-130,990,2
361,-173,1053,2
327,-322,884,2
346,-127,864,2
428,192,984,2
393,-259,916,2
474,12,1170,2
436,-246,969,2
363,-231,857,2
296,-118,927,2
306,-169,901,2
284,-115,1109,2
261,-220,1105,2
244,-188,1131,2
306,-101,1064,2
309,-246,934,2
341,-298,1016,2
336,-266,990,2
282,-149,981,2
289,-38,1008,2
363,-309,926,2
251,-132,971,2
223,-69,1099,2
237,-38,975,2
165,-471,1098,2
-29,-483,1033,2
-35,-363,1019,2
114,-155,940,2
68,-291,976,2
112,-341,1041,2
51,-294,805,2
31,-221,1014,2
50,-352,1135,2
13,-203,1009,2
255,-112,1035,2
93,-354,913,2
-23,-18,1102,2
51,-257,1002,2
77,-243,1039,2
5,-214,906,2
20,-47,1174,2
-128,-230,1070,2
236,-90,1085,2
-41,-426,970,2
84,-164,1151,2
-29,-136,1063,2
38,-157,1054,2
5,-251,1071,2
-86,-147,1155,2
-22,-152,988,2
-83,-119,1039,2
103,-64,1140,2
-45,-302,852,2
31,-118,1135,2
27,-240,927,2
47,-284,916,2
-18,-426,924,2
157,-7,1188,2
-17,-254,921,2
-101,-142,1081,2
-1,-131,1241,2
-66,-187,940,2
-45,11,1213,2
-67,-142,1117,2
-58,-179,977,2
20,20,1070,2
-72,-159,1022,2
111,-218,1157,2
160,-260,892,2
57,0,893,2
97,-98,1029,2
90,-178,1040,2
17,-216,945,2
25,-214,1071,2
-129,-353,1076,2
-32,-147,1146,2
-176,-374,965,2
64,-154,1183,2
-160,-313,961,2
7,-58,869,2
162,-59,1028,2
43,-237,1123,2
29,-252,1147,2
8,-491,1085,2
48,-295,1012,2
102,-334,945,2
153,-416,992,2
190,-276,993,2
178,-294,926,2
152,-223,890,2
100,-193,854,2
79,-233,886,2
110,-236,953,2
89,-282,984,2
68,-294,1066,2
66,-329,1111,2
27,-341,1141,2
48,-351,1136,2
104,-356,1117,2
177,-323,1097,2
171,-256,975,2
127,-160,933,2
145,-176,957,2
209,-182,956,2
227,-185,975,2
152,-206,980,2
82,-257,989,2
78,-315,1016,2
87,-350,1014,2
81,-365,1000,2
54,-351,1001,2
-1,-332,968,2
5,-307,989,2
38,-285,998,2
90,-295,1002,2
100,-273,984,2
88,-285,968,2
56,-272,966,2
82,-239,998,2
98,-171,1038,2
125,-138,1077,2
135,-131,1077,2
143,-133,1073,2
134,-157,1057,2
106,-193,1031,2
75,-223,1002,2
55,-240,984,2
55,-246,969,2
48,-252,952,2
50,-238,955,2
41,-242,935,2
48,-213,964,2
55,-206,983,2
67,-243,1020,2
101,-300,1060,2
104,-375,1061,2
40,-411,995,2
-25,-359,968,2
-47,-276,954,2
-16,-196,975,2
12,-152,997,2
17,-189,974,2
5,-236,972,2
27,-255,988,2
69,-251,1031,2
72,-283,1037,2
72,-320,1058,2
92,-320,1075,2
99,-282,1056,2
78,-250,1015,2
32,-221,948,2
20,-191,942,2
16,-190,953,2
36,-227,960,2
13,-262,993,2
-5,-280,1013,2
-31,-309,1018,2
-22,-280,1005,2
11,-232,1036,2
90,-168,1097,2
98,-209,1094,2
37,-303,1039,2
22,-344,990,2
31,-300,971,2
42,-247,948,2
48,-203,995,2
74,-179,1020,2
26,-244,994,2
-14,-320,971,2
-47,-354,955,2
-56,-337,961,2
-75,-318,966,2
-82,-273,977,2
-83,-236,992,2
-73,-223,998,2
-27,-206,1032,2
1,-238,1031,2
27,-285,1017,2
19,-326,989,2
36,-289,1006,2
55,-240,1021,2
79,-201,1029,2
76,-177,1022,2
56,-171,1007,2
49,-173,1009,2
58,-206,1004,2
32,-247,995,2
23,-281,986,2
3,-301,983,2
11,-309,994,2
7,-300,1003,2
-2,-256,1030,2
-8,-243,1060,2
-10,-251,1078,2
-21,-234,1110,2
-38,-210,1116,2
-63,-221,1087,2
-53,-193,1004,2
-47,-178,915,2
-22,-194,926,2
16,-179,971,2
19,-161,1000,2
-13,-157,1014,2
-38,-132,1051,2
-22,-93,1087,2
-41,-23,1107,2
-36,-13,1104,2
-63,-11,986,2
-115,-37,922,2
-115,26,894,2
-79,-12,848,2
-19,130,833,2
-31,58,884,2
24,217,970,2
13,347,1044,2
-14,308,1064,2
-15,266,1059,2
31,317,1086,2
44,176,1038,2
38,89,1008,2
46,229,1001,2
7,162,894,2
-74,256,997,2
-100,108,1012,2
-49,94,1018,2
-29,110,953,2
-44,-89,882,2
-43,165,1022,2
-100,281,1085,2
-175,350,1080,2
-188,297,1034,2
-226,107,917,2
-220,60,909,2
-204,94,980,2
-151,72,990,2
-130,25,997,2
-125,-45,960,2
-112,-70,961,2
-71,-43,1023,2
-42,-68,1069,2
-37,-169,1042,2
-25,-197,1040,2
-61,-203,1015,2
-72,-201,1004,2
-65,-186,1042,2
-38,-155,1073,2
-38,-119,1088,2
-55,-109,1072,2
-15,-111,1093,2
18,-135,1067,2
43,-195,1019,2
45,-237,992,2
37,-240,978,2
29,-246,943,2
27,-241,941,2
36,-220,940,2
46,-185,973,2
59,-157,1044,2
69,-152,1058,2
50,-177,1065,2
36,-161,1074,2
15,-158,1042,2
28,-156,1026,2
15,-170,1005,2
46,-160,1004,2
61,-178,1002,2
58,-174,981,2
87,-157,986,2
96,-161,964,2
107,-146,977,2
140,-105,1031,2
138,-100,1048,2
136,-111,1058,2
115,-125,1057,2
84,-116,1031,2
57,-114,1026,2
66,-138,1027,2
56,-152,999,2
19,-176,985,2
1,-160,1006,2
22,-141,1031,2
61,-135,1062,2
87,-135,1056,2
101,-135,1036,2
86,-145,991,2
77,-131,990,2
85,-128,987,2
86,-128,987,2
95,-135,1007,2
102,-150,1017,2
104,-143,1025,2
91,-158,1028,2
57,-164,997,2
67,-143,1017,2
75,-138,1032,2
99,-117,1057,2
105,-137,1079,2
130,-161,1076,2
148,-178,1061,2
136,-208,1011,2
121,-204,983,2
128,-165,983,2
129,-156,971,2
124,-154,966,2
121,-186,953,2
137,-213,942,2
132,-229,929,2
106,-248,914,2
97,-236,959,2
134,-205,1021,2
148,-198,1045,2
154,-194,1041,2
173,-146,1066,2
200,-91,1088,2
185,-89,1078,2
163,-73,1088,2
145,-98,1058,2
137,-118,1041,2
119,-115,1021,2
97,-112,990,2
101,-91,984,2
145,-87,978,2
155,-127,936,2
154,-145,936,2
188,-136,1004,2
211,-156,1062,2
188,-178,1081,2
183,-155,1088,2
175,-118,1056,2
183,-84,1062,2
169,-46,1066,2
155,-43,1055,2
112,-86,1011,2
104,-79,1008,2
128,-54,1043,2
166,-36,1075,2
142,-60,1052,2
127,-58,1040,2
158,-67,1040,2
188,-71,1046,2
188,-91,1043,2
165,-120,989,2
140,-137,941,2
149,-134,925,2
165,-108,956,2
182,-61,1025,2
159,-62,1070,2
113,-61,1136,2
136,-35,1129,2
97,-18,1114,2
83,41,1116,2
85,33,1090,2
120,-2,1056,2
136,-33,1014,2
139,-75,969,2
165,-80,966,2
198,-64,988,2
186,-71,1022,2
190,-104,1039,2
141,-155,1030,2
142,-96,1077,2
130,-94,1091,2
110,-54,1108,2
65,-72,1087,2
34,-66,1033,2
47,-30,1003,2
86,-17,972,2
153,40,1024,2
190,64,1057,2
181,32,1057,2
169,-11,1044,2
163,-58,1008,2
163,-77,999,2
163,-55,1008,2
147,-27,1014,2
99,-22,1001,2
71,-21,1001,2
77,-9,1024,2
98,8,1067,2
85,-11,1082,2
85,-33,1107,2
66,-53,1099,2
93,-46,1096,2
97,-45,1060,2
115,-13,1029,2
121,-27,986,2
126,-41,965,2
106,-44,960,2
77,-33,978,2
40,-9,1005,2
27,23,1057,2
49,53,1124,2
50,60,1150,2
42,17,1149,2
15,-31,1097,2
2,-58,1050,2
-17,-50,1018,2
15,-14,1022,2
53,-17,1006,2
92,-17,983,2
105,-57,963,2
91,-56,959,2
94,-18,965,2
103,17,1034,2
137,90,1108,2
154,65,1152,2
134,-25,1140,2
117,-110,1099,2
112,-128,1063,2
112,-59,1046,2
107,-21,1007,2
61,3,975,2
49,29,969,2
54,23,971,2
88,11,997,2
122,9,1032,2
130,0,1060,2
114,-51,1068,2
109,-111,1060,2
124,-126,1038,2
115,-99,1010,2
97,-73,972,2
72,-34,960,2
61,27,990,2
88,57,1032,2
103,19,1039,2
101,-17,1061,2
113,-66,1084,2
107,-195,1058,2
124,-259,1044,2
137,-210,1056,2
185,-144,1091,2
196,-172,1023,2
185,-153,974,2
176,-123,970,2
171,-135,944,2
165,-107,948,2
160,-62,978,2
165,-43,1003,2
201,0,1056,2
208,26,1059,2
180,16,1061,2
203,39,1075,2
218,17,1040,2
204,32,997,2
194,59,978,2
186,36,954,2
190,59,1006,2
256,60,1037,2
211,48,1026,2
193,55,1015,2
143,11,968,2
153,29,980,2
191,62,1024,2
219,75,1039,2
171,67,1036,2
109,100,1046,2
90,110,1055,2
77,91,1078,2
64,54,1094,2
56,42,1088,2
29,53,1049,2
-42,121,1044,2
-11,186,1098,2
38,92,1081,2
61,1,1009,2
19,-1,969,2
22,30,960,2
73,-6,958,2
133,-30,958,2
157,-72,942,2
124,-94,956,2
97,-51,1016,2
62,-91,1052,2
41,-49,1123,2
50,12,1193,2
23,-17,1117,2
-10,-30,1058,2
-22,-14,1050,2
4,3,1072,2
27,-28,1070,2
7,-52,1013,2
-6,-26,975,2
-4,24,942,2
-7,44,915,2
10,61,942,2
38,34,958,2
46,3,985,2
63,-11,1015,2
67,-29,1049,2
70,-12,1100,2
63,-40,1103,2
34,-79,1071,2
18,-61,1057,2
5,-47,1018,2
-8,-14,1001,2
-4,-2,995,2
2,-21,987,2
22,-27,1008,2
36,-49,1018,2
39,-56,1033,2
48,-52,1059,2
92,-3,1105,2
110,-27,1078,2
92,-39,1009,2
59,1,989,2
62,36,973,2
83,52,1005,2
104,29,1026,2
82,-47,1014,2
63,-88,1005,2
40,-74,1013,2
45,-29,1028,2
37,0,1026,2
38,7,1034,2
53,-31,1018,2
44,-42,1005,2
53,-44,1011,2
54,-42,1003,2
38,-26,1030,2
63,-28,1059,2
74,-32,1066,2
29,-53,1018,2
0,-29,981,2
-12,-19,947,2
-6,-9,950,2
8,-24,978,2
26,-33,997,2
11,-37,1016,2
19,-4,1044,2
61,20,1081,2
103,24,1114,2
110,-44,1078,2
75,-30,1027,2
52,13,995,2
36,56,977,2
33,89,1006,2
36,63,1029,2
17,25,1032,2
-5,0,1026,2
-20,-25,1006,2
-7,-14,1024,2
19,-39,1037,2
25,-41,1075,2
24,-70,1071,2
22,-102,1026,2
11,-82,971,2
0,-34,964,2
11,28,991,2
30,91,1044,2
33,97,1073,2
15,82,1069,2
-4,36,1041,2
-28,6,1016,2
-41,-12,1003,2
-50,-6,1008,2
-61,20,1022,2
-34,71,1080,2
-18,62,1095,2
-18,-3,1004,2
-73,-40,939,2
-95,4,922,2
-98,35,950,2
-56,107,1035,2
-47,72,1062,2
-40,38,1070,2
-30,-14,1079,2
12,2,1092,2
17,-34,1062,2
-4,-32,1029,2
-41,0,988,2
-50,36,959,2
-67,48,944,2
-100,49,947,2
-98,47,988,2
-73,27,1010,2
-74,15,1036,2
-83,-2,1033,2
-89,-11,1021,2
-85,28,1018,2
-70,64,1047,2
-6,128,1117,2
-7,53,1082,2
-1,35,1044,2
-43,7,982,2
-36,69,974,2
-35,79,974,2
-38,98,992,2
-34,100,1025,2
-29,99,1039,2
-25,66,1045,2
-36,18,1017,2
-39,-1,997,2
-49,-15,968,2
-30,3,975,2
-38,10,989,2
-6,63,1038,2
-12,45,1047,2
-29,52,1061,2
-16,33,1070,2
-1,52,1068,2
-1,18,1032,2
-39,-1,986,2
-35,11,988,2
-29,0,984,2
-24,17,1000,2
-30,37,1017,2
-24,37,1042,2
-26,-7,1038,2
-40,-32,1026,2
-46,-53,995,2
-62,-14,987,2
-52,-8,1007,2
-16,-9,1019,2
-23,-29,1027,2
-34,-48,1007,2
-36,-47,1004,2
-32,-40,1015,2
-21,-26,1035,2
-27,-48,1024,2
-34,-70,997,2
-80,-111,952,2
-100,-97,952,2
-106,-68,985,2
-76,-35,1021,2
-63,-13,1045,2
-68,-49,1038,2
-50,-54,1035,2
-57,-67,1014,2
-49,-31,1033,2
-22,-39,1052,2
21,-41,1064,2
4,-94,1018,2
3,-60,1004,2
-23,-69,975,2
-3,-27,1000,2
0,-43,1004,2
-20,-59,960,2
-56,-39,963,2
-23,-14,985,2
20,-30,1048,2
43,-72,1095,2
68,-129,1094,2
46,-123,1067,2
15,-65,1042,2
22,-5,1026,2
30,28,1018,2
35,16,999,2
5,-29,966,2
2,-28,984,2
-3,-50,994,2
20,-6,1039,2
24,-4,1060,2
56,-35,1065,2
50,-105,1008,2
24,-124,938,2
-10,-99,903,2
-9,-16,948,2
45,59,1049,2
63,49,1101,2
40,-22,1086,2
33,-53,1056,2
16,-12,1056,2
36,25,1068,2
30,22,1043,2
17,27,1033,2
13,16,1009,2
1,15,1001,2
12,5,993,2
-11,-35,965,2
17,5,1011,2
40,-17,1020,2
50,-18,1037,2
48,-45,1041,2
55,-42,1034,2
51,-32,1034,2
45,-23,1028,2
34,0,1038,2
34,24,1048,2
27,10,1036,2
21,8,1023,2
24,-8,1021,2
45,-36,1031,2
53,-58,1008,2
28,-65,993,2
28,-33,987,2
7,-25,981,2
19,1,1004,2
44,-13,1025,2
57,-25,1053,2
54,-38,1061,2
39,-72,1064,2
4,-89,1036,2
-23,-72,1003,2
-31,-26,1020,2
-12,-14,1026,2
-2,-4,1025,2
3,2,1036,2
-9,6,1017,2
-25,18,1015,2
19,49,1027,2
34,45,1025,2
3,50,1027,2
-19,40,1029,2
-30,19,1042,2
-37,-26,1016,2
-73,-28,1024,2
-75,11,1036,2
-56,-27,1032,2
1,-15,1060,2
32,-70,1041,2
48,-77,1043,2
52,-62,1049,2
52,-53,1026,2
45,-63,1007,2
37,-70,992,2
67,-99,967,2
85,-104,994,2
101,-141,1055,2
108,-116,1067,2
88,-117,1076,2
84,-167,1080,2
104,50,1034,2
146,27,1032,2
187,98,979,2
261,204,943,2
339,203,944,2
398,303,902,2
384,225,914,2
313,288,909,2
259,327,924,2
237,253,940,2
235,275,947,2
207,232,983,2
-662,220,1094,2
569,275,1006,2
315,203,927,2
461,4,920,2
-83,176,1017,2
300,132,919,2
51,114,951,2
43,136,966,2
147,175,979,2
-6,231,1042,2
110,251,1047,2
160,324,1056,2
164,302,1063,2
46,218,989,2
186,186,918,2
145,191,911,2
105,148,900,2
112,62,863,2
92,117,920,2
111,195,997,2
129,178,1021,2
153,109,988,2
202,86,990,2
233,98,1007,2
209,119,1028,2
186,77,1027,2
157,63,1041,2
174,127,1080,2
199,173,1123,2
212,156,1128,2
188,96,1099,2
190,46,1070,2
183,15,1036,2
176,30,1032,2
168,65,1053,2
157,78,1041,2
130,60,991,2
124,42,965,2
154,47,997,2
179,22,1032,2
212,-21,1058,2
213,-99,1025,2
169,-178,943,2
133,-169,926,2
106,-122,947,2
97,-75,1001,2
118,-28,1056,2
143,-5,1108,2
131,-52,1084,2
131,-56,1080,2
129,-28,1091,2
108,-15,1064,2
80,31,1062,2
61,92,1076,2
83,128,1087,2
118,95,1082,2
167,53,1053,2
167,-9,984,2
143,-38,903,2
166,-6,900,2
196,28,943,2
205,40,1024,2
200,-20,1090,2
186,-75,1090,2
159,-90,1079,2
140,-67,1080,2
150,-16,1120,2
162,15,1120,2
132,-16,1045,2
98,-25,956,2
118,25,925,2
161,77,953,2
233,90,995,2
265,74,1039,2
278,48,1052,2
253,-20,1024,2
217,-28,992,2
193,-14,992,2
194,25,1009,2
187,60,1027,2
162,65,1030,2
137,43,1030,2
161,37,1052,2
182,19,1072,2
202,-5,1081,2
202,-33,1071,2
192,-34,1036,2
164,8,1008,2
177,43,1003,2
200,18,993,2
193,-26,957,2
180,-54,940,2
151,-45,950,2
135,-1,984,2
121,39,1037,2
98,66,1091,2
77,60,1133,2
88,82,1170,2
82,19,1138,2
84,-18,1084,2
97,-29,1025,2
104,-7,981,2
114,47,974,2
126,74,965,2
126,91,968,2
115,66,962,2
118,33,972,2
117,30,996,2
83,13,1033,2
89,57,1131,2
124,40,1182,2
114,-65,1129,2
105,-101,1063,2
93,-78,1024,2
75,-39,1011,2
53,30,1016,2
65,95,1029,2
94,125,1046,2
114,71,1008,2
93,13,987,2
140,41,1040,2
179,-16,1069,2
162,-116,1045,2
128,-155,1009,2
143,-78,1030,2
155,-43,1009,2
134,-15,997,2
100,22,999,2
60,44,1023,2
85,77,1066,2
89,-14,1044,2
39,-78,1003,2
22,-80,1009,2
48,-43,1046,2
93,-6,1107,2
129,-40,1102,2
112,-113,1021,2
63,-111,953,2
37,-63,938,2
69,-5,966,2
71,39,997,2
56,64,1039,2
48,46,1059,2
69,5,1097,2
97,-27,1124,2
111,-70,1113,2
93,-125,1057,2
88,-86,1046,2
89,-64,1034,2
74,-71,979,2
17,-92,927,2
35,-51,939,2
56,-55,966,2
106,-20,1059,2
117,-91,1092,2
56,-204,1033,2
38,-225,991,2
51,-180,958,2
91,-88,981,2
100,-41,1007,2
108,-26,1048,2
80,-69,1077,2
71,-171,1083,2
79,-262,1067,2
103,-242,1024,2
88,-225,988,2
23,-230,987,2
8,-172,1011,2
-11,-122,1048,2
2,-45,1102,2
43,21,1153,2
67,-32,1126,2
90,-113,1044,2
86,-165,944,2
89,-171,882,2
120,-137,874,2
141,-100,889,2
145,-133,886,2
142,-185,893,2
134,-201,942,2
131,-208,1032,2
105,-245,1111,2
104,-305,1145,2
71,-311,1132,2
9,-267,1077,2
-36,-237,1038,2
-10,-173,1039,2
33,-91,1070,2
54,-39,1098,2
73,-72,1046,2
89,-143,956,2
109,-167,901,2
126,-149,883,2
117,-146,878,2
111,-120,904,2
127,-98,944,2
130,-132,970,2
127,-156,1016,2
126,-187,1072,2
115,-231,1079,2
74,-227,1078,2
60,-204,1057,2
26,-176,1027,2
9,-126,1013,2
22,-97,991,2
41,-108,977,2
68,-133,976,2
90,-153,994,2
120,-174,1019,2
126,-227,1011,2
137,-230,1026,2
151,-201,1040,2
156,-188,1031,2
120,-160,1022,2
108,-108,1037,2
113,-107,1024,2
109,-141,1001,2
98,-186,966,2
98,-229,936,2
107,-248,935,2
122,-242,967,2
121,-219,1010,2
107,-199,1024,2
109,-189,1016,2
122,-174,1008,2
144,-164,1011,2
158,-171,1026,2
152,-193,1022,2
113,-239,977,2
79,-249,974,2
73,-214,999,2
72,-189,1013,2
52,-177,1007,2
40,-162,985,2
42,-143,968,2
54,-125,963,2
53,-112,973,2
71,-95,998,2
103,-86,1052,2
157,-73,1101,2
185,-120,1113,2
175,-164,1074,2
155,-162,1037,2
145,-150,1004,2
141,-121,999,2
93,-137,979,2
71,-131,980,2
55,-144,989,2
58,-143,998,2
54,-153,1011,2
68,-168,1021,2
111,-162,1048,2
140,-172,1059,2
154,-187,1040,2
152,-194,1017,2
167,-135,1026,2
165,-109,1027,2
151,-90,1038,2
143,-104,1040,2
125,-149,1005,2
92,-184,981,2
63,-188,984,2
21,-168,1012,2
12,-134,1037,2
2,-108,1044,2
6,-62,1067,2
9,-52,1049,2
13,-49,1031,2
-2,-47,1006,2
37,1,1012,2
59,-30,1021,2
101,-33,1040,2
146,-30,1088,2
141,-101,1052,2
130,-140,1006,2
108,-114,964,2
74,-59,949,2
53,-9,986,2
44,2,1021,2
19,-33,1033,2
-34,-103,996,2
-53,-99,1009,2
-22,-41,1079,2
28,-10,1168,2
35,-63,1150,2
24,-103,1103,2
53,-72,1063,2
71,-62,999,2
64,-63,951,2
56,-65,954,2
65,-94,973,2
52,-131,984,2
8,-166,984,2
-25,-173,977,2
-34,-166,975,2
-30,-126,997,2
0,-78,1057,2
37,-42,1126,2
59,-98,1132,2
55,-149,1070,2
27,-189,994,2
0,-132,966,2
12,-70,1000,2
21,-10,1025,2
-4,18,1047,2
-5,-34,1023,2
30,-80,1021,2
49,-108,1006,2
40,-112,1002,2
30,-99,1000,2
46,-69,1023,2
70,-70,1026,2
66,-79,1010,2
59,-65,1018,2
58,-51,1018,2
34,-59,1008,2
21,-52,1009,2
-4,-61,1008,2
7,-5,1041,2
30,18,1060,2
52,8,1072,2
68,-29,1070,2
71,-52,1053,2
69,-44,1030,2
48,-48,1001,2
35,-21,993,2
41,-25,990,2
58,-24,1022,2
57,-48,1051,2
53,-111,1047,2
35,-157,1028,2
36,-91,1034,2
67,-36,1056,2
51,6,1049,2
37,15,1053,2
17,-14,1021,2
9,-40,1007,2
24,-49,1022,2
37,-68,1025,2
27,-79,1007,2
6,-65,988,2
4,-42,978,2
15,13,1002,2
45,66,1073,2
83,60,1133,2
79,-34,1103,2
60,-87,1058,2
45,-59,1045,2
33,-19,1022,2
16,16,1012,2
-16,18,979,2
-23,56,981,2
-19,42,1002,2
18,26,1017,2
46,-1,1048,2
62,-53,1062,2
70,-98,1059,2
61,-90,1050,2
45,-35,1040,2
36,29,1042,2
44,79,1039,2
39,75,1037,2
54,35,1031,2
45,-47,994,2
25,-83,962,2
0,-56,974,2
9,13,1008,2
48,101,1077,2
90,109,1098,2
118,51,1086,2
124,-39,1055,2
107,-67,1046,2
84,-45,1058,2
49,-30,1032,2
21,-10,1005,2
15,12,987,2
37,27,981,2
51,43,999,2
55,35,1005,2
60,37,1027,2
61,14,1026,2
70,-14,1030,2
71,-41,1038,2
54,-62,1021,2
12,-47,1015,2
-32,-33,1002,2
-41,34,1032,2
-14,94,1079,2
33,58,1077,2
41,-2,1065,2
61,-15,1063,2
66,-36,1046,2
49,-46,1001,2
24,-15,962,2
0,9,944,2
15,41,964,2
23,50,1000,2
42,29,1031,2
35,-53,1041,2
46,-110,1046,2
40,-128,1040,2
10,-107,1011,2
-40,-60,989,2
-69,-2,979,2
-37,79,1014,2
0,96,1059,2
37,67,1105,2
65,-35,1104,2
43,-136,1077,2
28,-111,1062,2
24,-57,1067,2
41,-12,1064,2
30,-15,1032,2
14,-36,976,2
8,-44,942,2
20,-40,934,2
32,-61,922,2
39,-86,928,2
43,-113,949,2
35,-139,971,2
28,-161,997,2
44,-130,1035,2
57,-95,1063,2
51,-19,1082,2
36,46,1114,2
42,58,1120,2
67,58,1125,2
59,-16,1063,2
25,-56,1014,2
-13,-60,996,2
-11,-35,1015,2
10,-43,1033,2
50,-74,1024,2
57,-108,985,2
36,-90,973,2
51,-74,976,2
75,-69,964,2
86,-82,954,2
125,-72,987,2
159,-94,1025,2
157,-122,1034,2
134,-107,1064,2
132,-74,1074,2
132,-29,1082,2
112,-15,1073,2
84,-18,1064,2
42,-48,1035,2
21,-54,1022,2
-2,-54,1011,2
-1,-22,1014,2
11,12,1032,2
43,31,1043,2
64,6,1016,2
69,-10,995,2
93,-2,1020,2
129,-9,1045,2
143,-38,1074,2
142,-105,1040,2
142,-116,993,2
106,-86,939,2
89,-19,942,2
109,46,999,2
114,88,1044,2
96,72,1067,2
91,13,1078,2
88,-32,1076,2
85,13,1109,2
82,71,1128,2
82,68,1115,2
68,54,1082,2
47,49,1047,2
36,72,1032,2
77,88,1042,2
110,45,1032,2
107,-8,1002,2
87,-74,940,2
84,-90,926,2
106,-83,954,2
122,-58,1013,2
109,-74,1083,2
107,-91,1126,2
98,-108,1107,2
89,-90,1078,2
107,-78,1055,2
130,-26,1079,2
112,-25,1058,2
55,-38,1008,2
12,-64,946,2
21,-28,941,2
66,-9,968,2
122,23,1031,2
162,68,1085,2
157,-13,1049,2
128,-71,1022,2
116,-44,1017,2
113,-4,1019,2
79,25,1016,2
43,32,997,2
-2,31,983,2
-17,79,1010,2
0,110,1057,2
61,129,1115,2
88,64,1135,2
95,-36,1093,2
100,-87,1047,2
123,-37,1044,2
145,18,1028,2
104,33,990,2
88,53,971,2
82,41,971,2
90,19,981,2
94,18,1013,2
76,-33,1019,2
48,-5,1073,2
54,19,1143,2
69,17,1158,2
53,10,1118,2
31,-2,1063,2
38,29,1025,2
67,58,1024,2
110,45,1027,2
137,3,991,2
120,-17,961,2
119,-21,938,2
100,-9,960,2
135,23,1019,2
137,-5,1066,2
107,-33,1100,2
85,-31,1126,2
76,-10,1109,2
51,12,1075,2
36,45,1050,2
28,49,993,2
12,42,958,2
18,54,961,2
63,57,999,2
96,68,1042,2
100,55,1075,2
75,24,1081,2
93,29,1093,2
59,0,1065,2
58,35,1076,2
12,13,1049,2
15,52,1055,2
69,21,1062,2
90,-23,1040,2
96,-56,993,2
23,-72,948,2
-11,5,965,2
-14,15,983,2
35,71,1056,2
52,6,1095,2
47,-78,1107,2
40,-135,1073,2
-5,-131,1008,2
-37,-69,989,2
-54,-7,1002,2
-17,103,1060,2
11,33,1042,2
1,-73,961,2
-57,-54,958,2
-55,34,1010,2
3,35,1064,2
30,-10,1101,2
21,-48,1102,2
-4,-71,1108,2
-25,-94,1086,2
-50,-56,1051,2
-42,-35,1045,2
-29,-61,995,2
-51,-89,949,2
-84,-75,958,2
-42,-86,987,2
11,-164,1005,2
27,-227,998,2
-40,-244,930,2
-54,-140,956,2
-26,-43,1003,2
26,49,1070,2
36,44,1127,2
30,0,1156,2
15,-97,1144,2
-27,-207,1056,2
-33,-239,1039,2
-37,-203,1029,2
-66,-200,1011,2
-98,-150,1026,2
-62,-67,1034,2
-16,-62,985,2
-8,-89,916,2
-35,-82,910,2
-6,-67,988,2
19,-103,1099,2
68,-136,1178,2
115,-193,1140,2
173,-191,1067,2
214,-175,943,2
202,-149,851,2
175,-115,870,2
146,-110,925,2
118,-149,971,2
57,-223,1027,2
61,-269,1047,2
81,-329,1079,2
61,-302,1109,2
23,-245,1086,2
33,-173,1061,2
76,-127,1019,2
135,-82,1000,2
155,-89,1015,2
176,-115,1016,2
169,-175,986,2
157,-223,943,2
142,-199,923,2
151,-160,928,2
154,-145,956,2
126,-170,977,2
99,-203,1015,2
94,-251,1032,2
86,-264,1046,2
70,-256,1050,2
65,-236,1044,2
54,-193,1034,2
61,-160,1017,2
82,-139,1006,2
104,-124,1003,2
101,-112,1006,2
107,-146,1006,2
127,-180,1014,2
116,-212,1012,2
89,-194,1007,2
65,-170,994,2
59,-108,993,2
80,-26,1050,2
120,-17,1084,2
110,-94,1076,2
78,-224,1010,2
61,-262,973,2
60,-236,967,2
62,-195,963,2
58,-152,992,2
86,-137,1008,2
107,-139,1023,2
111,-136,1022,2
116,-142,1025,2
101,-160,1020,2
72,-184,1010,2
59,-219,998,2
23,-263,965,2
-13,-266,977,2
-26,-227,1012,2
-28,-173,1029,2
-27,-155,1014,2
-36,-142,969,2
-27,-109,933,2
-6,-91,931,2
33,-73,957,2
63,-63,1002,2
80,-78,1060,2
135,-120,1103,2
126,-153,1107,2
93,-162,1087,2
45,-133,1058,2
13,-120,1015,2
5,-137,967,2
-15,-148,948,2
-16,-128,973,2
-8,-144,1013,2
23,-136,1053,2
63,-146,1067,2
106,-170,1060,2
103,-196,995,2
98,-170,982,2
105,-139,1004,2
118,-108,1049,2
141,-101,1109,2
134,-179,1066,2
82,-195,1000,2
-37,-172,966,2
-42,-126,952,2
-25,-102,970,2
-14,-130,967,2
-32,-170,1005,2
-33,-188,1050,2
-3,-206,1083,2
14,-189,1077,2
19,-156,1028,2
20,-119,992,2
28,-49,1010,2
19,-56,1008,2
23,-95,1019,2
50,-131,1029,2
81,-154,1036,2
72,-202,996,2
42,-226,946,2
12,-198,925,2
0,-137,937,2
10,-101,971,2
44,-52,1032,2
77,-56,1081,2
78,-125,1081,2
66,-202,1022,2
30,-215,972,2
20,-166,994,2
28,-142,1029,2
-57,-135,1059,2
-62,-62,1106,2
-21,-69,1122,2
55,-59,1095,2
88,-84,1024,2
71,-107,928,2
49,-84,900,2
40,-71,917,2
51,-61,964,2
58,-83,1023,2
57,-152,1044,2
65,-205,1050,2
84,-179,1067,2
62,-157,1042,2
58,-104,1033,2
40,-100,1010,2
55,-110,982,2
53,-115,984,2
69,-90,1008,2
85,-96,1028,2
89,-124,1049,2
95,-160,1058,2
87,-179,1053,2
42,-180,1023,2
20,-133,991,2
9,-95,969,2
27,-55,955,2
46,-60,962,2
35,-79,974,2
39,-102,998,2
72,-96,1051,2
105,-125,1068,2
133,-153,1044,2
129,-149,1036,2
138,-90,1051,2
123,-89,1035,2
75,-123,966,2
28,-135,912,2
16,-82,922,2
36,-50,963,2
18,-29,1019,2
7,-39,1056,2
21,-76,1080,2
70,-98,1088,2
84,-101,1076,2
71,-70,1061,2
79,-65,1020,2
75,-55,984,2
82,-34,986,2
64,-30,994,2
55,-47,1000,2
49,-52,1004,2
60,-47,1004,2
82,-37,1032,2
94,-8,1061,2
91,-35,1059,2
88,-32,1052,2
96,-27,1040,2
119,14,1052,2
135,0,1043,2
101,-37,1008,2
79,-57,966,2
52,-51,960,2
49,-21,994,2
44,-21,1047,2
18,-43,1062,2
14,-87,1047,2
39,-70,1041,2
68,-11,1046,2
84,19,1045,2
73,22,1026,2
84,32,1038,2
102,23,1045,2
109,-17,1042,2
68,-58,993,2
33,-67,966,2
14,-22,964,2
28,36,1008,2
29,55,1030,2
21,39,1042,2
9,-16,1037,2
34,-39,1062,2
59,-40,1046,2
62,-56,1034,2
69,-37,1042,2
50,-2,1034,2
45,18,1033,2
51,26,1024,2
41,26,1011,2
39,22,1006,2
57,-4,1017,2
56,-53,1016,2
34,-93,1000,2
-17,-95,988,2
-20,-26,1002,2
37,58,1048,2
102,90,1079,2
129,44,1069,2
132,-22,1040,2
119,-70,1018,2
94,-81,1009,2
95,-35,1026,2
96,-26,1023,2
95,-31,1017,2
110,-71,999,2
113,-64,998,2
109,-71,993,2
120,-76,999,2
150,-106,1012,2
174,-151,1013,2
152,-206,1009,2
99,-227,984,2
76,-174,998,2
68,-126,1005,2
62,-109,1010,2
30,-91,1016,2
34,-59,1050,2
54,-41,1068,2
52,-56,1078,2
87,-99,1067,2
120,-151,1047,2
123,-149,1019,2
96,-130,990,2
73,-97,959,2
71,-71,958,2
90,-42,995,2
110,-63,1018,2
103,-125,1041,2
82,-204,1028,2
53,-216,1021,2
23,-181,1008,2
25,-125,1006,2
60,-55,1048,2
103,-13,1091,2
109,-26,1111,2
120,-75,1104,2
142,-119,1099,2
157,-160,1079,2
142,-173,1039,2
124,-162,991,2
122,-131,969,2
116,-138,941,2
125,-164,933,2
139,-200,935,2
158,-221,948,2
168,-236,964,2
160,-220,998,2
174,-186,1039,2
197,-165,1078,2
219,-122,1102,2
218,-106,1102,2
209,-76,1096,2
190,-55,1071,2
162,-53,1041,2
131,-86,993,2
128,-75,986,2
160,-113,977,2
183,-164,962,2
228,-173,991,2
264,-205,1001,2
300,-214,1026,2
317,-225,1062,2
314,-246,1050,2
308,-196,1066,2
259,-169,1042,2
223,-119,1028,2
184,-76,1021,2
168,-31,1036,2
160,-31,1023,2
129,-50,1029,2
145,-31,1078,2
203,-49,1114,2
252,-91,1118,2
259,-175,1045,2
267,-161,989,2
251,-129,966,2
244,-81,999,2
227,-67,1027,2
187,-58,1062,2
186,-48,1086,2
143,-58,1085,2
102,23,1117,2
86,64,1138,2
123,29,1137,2
176,12,1116,2
184,-70,1047,2
230,-92,1013,2
255,-120,998,2
259,-89,1022,2
243,-120,1045,2
239,-156,1059,2
247,-195,1095,2
258,-189,1114,2
208,-170,1085,2
140,-134,1018,2
140,-82,973,2
187,-37,956,2
262,17,982,2
308,9,1011,2
319,-40,1024,2
335,-79,1032,2
300,-122,1018,2
277,-64,1043,2
259,-35,1048,2
257,4,1070,2
229,-19,1077,2
210,-45,1100,2
225,-85,1126,2
254,-145,1132,2
294,-148,1126,2
283,-133,1051,2
255,-88,974,2
231,-53,935,2
234,-10,964,2
225,-16,1003,2
190,-8,1061,2
161,-22,1113,2
181,-24,1149,2
197,-56,1141,2
176,-39,1116,2
170,-4,1105,2
166,-25,1044,2
157,-27,990,2
147,-50,956,2
176,-32,987,2
200,-4,1058,2
176,-67,1118,2
169,-107,1162,2
169,-144,1163,2
170,-99,1120,2
106,-91,1033,2
65,-54,951,2
80,-28,932,2
117,23,954,2
157,54,1050,2
216,20,1140,2
256,-95,1180,2
245,-184,1143,2
243,-133,1126,2
194,-80,1059,2
174,-36,1007,2
137,-36,949,2
123,-20,948,2
151,-21,996,2
216,-17,1097,2
253,-111,1144,2
236,-211,1107,2
221,-239,1061,2
202,-158,1013,2
181,-41,998,2
153,16,980,2
151,26,988,2
135,-15,987,2
137,-25,1021,2
142,-31,1092,2
160,-26,1156,2
149,-56,1135,2
132,-42,1079,2
112,3,1020,2
140,31,1006,2
149,-24,996,2
90,-99,964,2
42,-57,998,2
51,-90,1004,2
139,-47,1050,2
217,37,1132,2
228,18,1129,2
179,17,1110,2
88,59,1073,2
48,75,1094,2
63,91,1129,2
64,40,1105,2
20,-40,1024,2
-14,-71,914,2
-35,-10,910,2
12,79,1005,2
78,160,1105,2
151,99,1208,2
196,-94,1121,2
209,-221,1021,2
202,-165,979,2
185,-58,965,2
149,46,999,2
88,47,1035,2
56,23,1066,2
33,-23,1080,2
-15,-151,1027,2
-90,-258,953,2
-146,-207,956,2
-126,-127,997,2
-55,-38,1053,2
-8,27,1105,2
61,-38,1058,2
110,-84,1050,2
166,-89,1044,2
162,-174,1003,2
107,-236,948,2
38,-273,909,2
-10,-257,920,2
-43,-255,955,2
-90,-243,1002,2
-107,-220,1047,2
-98,-189,1054,2
-88,-157,1051,2
-62,-120,1041,2
-70,-111,1014,2
-53,-99,1013,2
-22,-137,1011,2
7,-176,1009,2
19,-203,1020,2
37,-182,1030,2
27,-169,1013,2
26,-109,1025,2
44,-62,1057,2
52,-57,1078,2
30,-104,1055,2
-1,-204,1006,2
-2,-245,972,2
0,-238,969,2
-7,-208,973,2
-26,-180,992,2
15,-165,1008,2
64,-149,1035,2
85,-141,1044,2
99,-152,1045,2
84,-193,1023,2
71,-209,1002,2
42,-246,965,2
-2,-247,942,2
-37,-249,965,2
-50,-229,1013,2
-71,-219,1027,2
-84,-199,1004,2
-77,-157,962,2
-37,-131,933,2
21,-96,964,2
62,-100,997,2
94,-144,1039,2
131,-191,1087,2
177,-256,1107,2
176,-252,1083,2
117,-236,1036,2
53,-161,1022,2
16,-168,978,2
-1,-188,936,2
-38,-183,925,2
-52,-143,969,2
-28,-159,1017,2
28,-173,1068,2
97,-218,1094,2
101,-311,1026,2
100,-275,1008,2
94,-236,1023,2
130,-182,1060,2
187,-163,1100,2
166,-259,1039,2
129,-236,982,2
69,-203,948,2
37,-171,935,2
35,-172,949,2
16,-180,978,2
-8,-201,1022,2
-15,-233,1060,2
-13,-268,1056,2
-6,-254,1032,2
31,-190,1044,2
80,-142,1053,2
108,-147,1028,2
115,-170,1013,2
134,-203,991,2
130,-256,946,2
119,-268,927,2
106,-248,930,2
111,-202,965,2
116,-153,1018,2
106,-194,1027,2
51,-249,997,2
59,-258,999,2
58,-259,1022,2
32,-207,1051,2
17,-167,1083,2
23,-121,1080,2
74,-107,1048,2
97,-135,1003,2
128,-143,970,2
141,-134,976,2
145,-143,995,2
116,-167,1004,2
109,-212,1022,2
129,-237,1030,2
144,-211,1053,2
136,-202,1050,2
113,-177,1046,2
92,-152,1034,2
73,-155,1012,2
55,-157,1007,2
78,-167,1015,2
104,-151,1046,2
104,-142,1063,2
75,-182,1027,2
69,-164,1007,2
68,-152,993,2
95,-125,1004,2
114,-122,1021,2
126,-137,1018,2
146,-159,1032,2
192,-165,1071,2
233,-196,1079,2
215,-219,1035,2
171,-195,994,2
180,-157,988,2
167,-134,982,2
127,-153,968,2
95,-167,968,2
79,-185,975,2
86,-145,1006,2
105,-79,1066,2
155,-30,1109,2
202,-57,1104,2
201,-101,1044,2
168,-106,1001,2
151,-73,1004,2
171,-34,1043,2
196,1,1092,2
183,-39,1097,2
181,-61,1103,2
182,-110,1076,2
169,-109,1029,2
168,-85,1021,2
147,-88,1002,2
141,-69,1024,2
142,-53,1061,2
144,-43,1090,2
162,-57,1097,2
174,-93,1093,2
184,-93,1055,2
166,-96,1012,2
145,-76,969,2
155,-61,954,2
187,-48,986,2
212,-50,1024,2
202,-70,1043,2
161,-63,1070,2
139,-65,1090,2
147,-60,1082,2
137,-68,1062,2
111,-75,1029,2
106,-81,1014,2
85,-80,1005,2
39,-76,996,2
31,-49,1013,2
53,-43,1028,2
89,-28,1059,2
85,-8,1088,2
79,-23,1098,2
92,-32,1093,2
125,-29,1087,2
150,-11,1093,2
176,-7,1087,2
159,-58,1046,2
156,-60,1027,2
148,-44,1040,2
138,-40,1043,2
108,-49,1032,2
79,-86,1013,2
102,-105,1026,2
129,-120,1044,2
124,-124,1061,2
101,-147,1028,2
96,-116,1019,2
117,-55,1022,2
159,34,1066,2
174,25,1081,2
158,-7,1068,2
127,-62,1045,2
95,-105,1005,2
63,-82,988,2
53,-57,984,2
90,-33,1004,2
126,-18,1043,2
121,-81,1026,2
99,-132,1014,2
71,-196,991,2
53,-147,1015,2
49,-71,1039,2
81,43,1090,2
100,53,1107,2
110,55,1127,2
127,13,1123,2
109,-56,1084,2
70,-89,1039,2
68,-90,993,2
57,-76,954,2
64,-33,944,2
75,-69,936,2
71,-85,938,2
36,-103,958,2
37,-83,1015,2
71,-82,1078,2
134,-72,1136,2
169,-46,1142,2
167,-20,1141,2
149,0,1109,2
105,14,1062,2
75,42,1026,2
66,64,1013,2
32,21,983,2
21,28,991,2
21,-14,998,2
73,-12,1025,2
81,-70,1034,2
78,-135,1015,2
76,-187,1010,2
84,-181,1021,2
88,-132,1051,2
111,-67,1096,2
117,-25,1102,2
86,-13,1071,2
55,-18,1040,2
8,-38,1017,2
-7,-46,1022,2
-30,-57,1024,2
-43,-50,1030,2
-57,-38,1033,2
-57,-76,1035,2
-13,11,1087,2
25,22,1119,2
24,-88,1070,2
15,-87,1032,2
-18,-99,990,2
-31,-107,957,2
-32,-88,964,2
-61,-86,963,2
-88,-63,988,2
-82,-41,1042,2
-55,-69,1083,2
-94,-92,1104,2
-108,-77,1111,2
-119,-78,1069,2
-135,-11,1059,2
-116,50,1086,2
-80,75,1111,2
-75,12,1077,2
-79,-11,1022,2
-76,-33,977,2
-33,-15,977,2
-23,-41,1004,2
-41,-108,1018,2
-103,-164,1045,2
-151,-170,1080,2
-185,-143,1037,2
-213,-86,993,2
-242,-42,979,2
-250,-41,967,2
-252,-46,977,2
-212,-58,997,2
-154,-77,1021,2
-96,-70,1063,2
-51,-110,1071,2
-43,-120,1087,2
-20,-138,1066,2
18,-150,1026,2
46,-171,976,2
86,-137,957,2
127,-109,953,2
101,-132,943,2
86,-113,963,2
55,-134,982,2
39,-136,1007,2
12,-169,1039,2
-3,-186,1048,2
9,-195,1053,2
24,-182,1043,2
55,-149,1064,2
58,-150,1070,2
57,-132,1077,2
28,-121,1057,2
-10,-71,1032,2
-21,-22,1036,2
25,29,1061,2
65,0,1061,2
71,-41,1054,2
62,-120,1023,2
31,-153,987,2
1,-156,982,2
-19,-146,987,2
-9,-148,982,2
-8,-146,983,2
-21,-117,999,2
-12,-107,1008,2
-5,-94,1026,2
17,-101,1030,2
18,-69,1055,2
-16,-29,1079,2
-113,-12,1104,2
-18,-42,1081,2
11,-39,1046,2
5,-83,1032,2
-27,-91,1018,2
-24,-97,1012,2
10,-57,1029,2
18,-45,1026,2
11,-38,1028,2
-61,-3,1059,2
-58,-44,1061,2
-148,-82,1061,2
-12,-114,1000,2
-63,-140,1066,2
-10,-152,1038,2
-19,-161,1060,2
11,-97,1045,2
-59,-68,1065,2
-70,-47,1059,2
-36,-37,1052,2
0,-62,1020,2
46,-134,983,2
60,-154,943,2
91,-130,935,2
49,-114,960,2
-317,-21,1149,2
157,-217,967,2
5,-65,1034,2
-79,-83,1039,2
130,-118,943,2
-99,-7,1086,2
123,-145,982,2
93,-56,1043,2
-72,-128,1090,2
-45,-153,1074,2
-67,-183,1048,2
-21,-180,1027,2
75,-154,973,2
-11,-133,990,2
-42,-91,986,2
4,-126,986,2
3,-61,1036,2
-42,-71,1099,2
-57,-59,1146,2
76,-110,1060,2
-78,-130,1078,2
-24,-114,995,2
-144,-120,1014,2
-111,-118,1001,2
-12,-138,968,2
-125,-117,1017,2
-122,-165,1004,2
-109,-205,1020,2
-14,-222,996,2
42,-203,975,2
10,-165,965,2
-110,-178,965,2
-90,-167,956,2
-72,-118,1023,2
-50,-69,1108,2
112,-200,1023,2
116,-225,964,2
-121,-163,1009,2
-225,-167,1022,2
-135,-207,975,2
-192,-65,1094,2
-166,-174,1087,2
-192,-177,1098,2
-161,-152,1079,2
-166,-200,1046,2
17,-180,948,2
8,-166,963,2
83,-247,888,2
-24,-207,945,2
114,-235,914,2
30,-145,1006,2
31,-174,1034,2
-27,-194,1069,2
11,-247,1070,2
-23,-278,1068,2
-3,-312,973,2
-139,-262,958,2
-226,-238,955,2
-258,-259,967,2
-266,-302,1011,2
-158,-307,1060,2
40,-327,1052,2
24,-332,1019,2
12,-254,1012,2
59,-217,1014,2
204,-235,948,2
173,-191,990,2
156,-210,966,2
47,-218,980,2
50,-213,949,2
-11,-179,1003,2
51,-167,1038,2
-36,-229,1108,2
-7,-364,1056,2
-141,-349,1008,2
-236,-304,976,2
-212,-263,887,2
-23,-247,863,2
-113,-226,917,2
-11,-282,953,2
-40,-289,1033,2
15,-258,1117,2
171,-346,1070,2
239,-339,1005,2
32,-237,1057,2
66,-262,936,2
-45,-193,955,2
-127,-164,1001,2
-53,-162,1014,2
-9,-189,1001,2
-82,-199,989,2
12,-211,945,2
-22,-229,953,2
25,-259,984,2
0,-272,997,2
45,-271,1017,2
49,-304,995,2
-4,-271,1031,2
-8,-306,1011,2
52,-287,972,2
-60,-210,1000,2
-42,-201,977,2
-20,-177,1003,2
22,-164,1017,2
25,-167,1032,2
-15,-169,1076,2
68,-267,1045,2
51,-258,1063,2
70,-301,995,2
11,-239,978,2
-21,-186,957,2
-58,-139,962,2
-39,-84,1007,2
-44,-80,1053,2
-40,-112,1069,2
-46,-202,1043,2
-39,-212,1010,2
-46,-253,985,2
-49,-233,986,2
-24,-231,992,2
-40,-204,994,2
-39,-152,1008,2
-29,-139,1014,2
-9,-111,1023,2
7,-116,1046,2
7,-128,1051,2
9,-163,1033,2
-16,-189,1011,2
-38,-201,982,2
-44,-176,978,2
-41,-153,977,2
-33,-141,978,2
-16,-133,978,2
-27,-132,967,2
-34,-113,978,2
-30,-102,999,2
-6,-98,1032,2
24,-124,1058,2
33,-151,1077,2
20,-156,1085,2
0,-141,1078,2
-36,-99,1060,2
-68,-71,1036,2
-90,-69,1003,2
-109,-53,980,2
-117,-60,980,2
-108,-53,980,2
-111,-58,983,2
-88,-72,976,2
-54,-122,988,2
0,-125,1022,2
38,-159,1042,2
44,-190,1023,2
21,-178,998,2
4,-127,993,2
13,-80,1023,2
-10,-94,1034,2
-74,-101,1055,2
-94,-124,1056,2
-123,-163,1041,2
-147,-132,1034,2
-158,-88,1024,2
-135,-56,1016,2
-112,-20,1038,2
-67,-45,1031,2
-52,-98,1009,2
-38,-130,997,2
-10,-124,1007,2
12,-108,1020,2
26,-115,1014,2
10,-122,993,2
-14,-133,965,2
-14,-132,976,2
0,-121,1015,2
0,-122,1051,2
-27,-145,1057,2
-62,-148,1035,2
-51,-119,1032,2
-21,-97,1015,2
3,-91,1012,2
9,-85,981,2
9,-86,984,2
55,-142,991,2
78,-185,1018,2
71,-154,1036,2
70,-139,1045,2
55,-119,1044,2
64,-100,1049,2
51,-88,1051,2
35,-95,1035,2
12,-150,986,2
14,-126,991,2
33,-132,1004,2
71,-152,1024,2
99,-165,1056,2
76,-211,1014,2
52,-236,958,2
24,-216,925,2
5,-174,906,2
0,-135,921,2
0,-124,951,2
-7,-134,979,2
-13,-134,1027,2
-15,-149,1065,2
-5,-166,1094,2
17,-187,1114,2
43,-196,1108,2
49,-164,1090,2
35,-131,1048,2
30,-133,958,2
8,-127,890,2
-5,-84,902,2
-14,-35,928,2
-63,-56,968,2
-69,-32,1024,2
-48,-82,1050,2
0,-91,1066,2
12,-106,1068,2
-3,-120,1043,2
-35,-122,1020,2
-39,-127,993,2
-57,-95,996,2
-92,-38,1010,2
-109,1,1031,2
-106,15,1035,2
-106,11,1020,2
-102,7,1014,2
-84,-23,983,2
-87,-52,973,2
-93,-42,993,2
-44,-16,1047,2
-24,-34,1075,2
-11,-68,1064,2
-28,-101,1046,2
-41,-68,1028,2
-61,-34,1022,2
-81,-20,993,2
-114,6,978,2
-117,14,980,2
-105,-16,977,2
-92,-44,988,2
-104,-62,994,2
-71,-18,1039,2
-39,-58,1043,2
3,-69,1040,2
-8,-81,1020,2
-25,-57,1006,2
-63,-69,967,2
-94,-55,948,2
-108,-23,965,2
-98,23,1020,2
-109,30,1069,2
-116,-18,1077,2
-122,-61,1060,2
-112,-81,1027,2
-97,-55,1018,2
-62,-18,1033,2
-61,-9,1031,2
-51,-5,1046,2
-44,-62,1017,2
-20,-89,1001,2
-17,-121,967,2
-36,-82,949,2
-68,-31,973,2
-82,-14,974,2
-101,18,1006,2
-103,34,1033,2
-96,3,1030,2
-80,-3,1048,2
-58,-24,1071,2
-43,-30,1088,2
-26,-65,1075,2
-24,-82,1038,2
-32,-71,1000,2
-38,-42,964,2
-50,-7,960,2
-44,1,953,2
-79,18,971,2
-64,24,1011,2
-71,-10,1028,2
-69,-57,1045,2
-85,-83,1050,2
-107,-58,1071,2
-118,-29,1074,2
-123,-21,1058,2
-131,-9,1017,2
-109,1,990,2
-107,37,978,2
-94,48,978,2
-113,26,965,2
-120,16,979,2
-117,-12,977,2
-115,45,1038,2
-85,16,1061,2
-78,0,1076,2
-101,-42,1038,2
-127,-23,1015,2
-142,17,1017,2
-125,88,1032,2
-130,87,1016,2
-184,52,978,2
-199,61,997,2
-138,62,1041,2
-58,41,1060,2
-48,2,1041,2
-88,-23,1014,2
-128,-39,1007,2
-137,-54,999,2
-166,-89,959,2
-189,-64,922,2
-238,-27,912,2
-274,71,960,2
-320,160,1042,2
-253,146,1061,2
-155,61,1047,2
-151,2,1034,2
-140,-26,1008,2
-133,-31,997,2
-136,-6,975,2
-123,17,980,2
-97,58,1018,2
-81,72,1033,2
-76,17,1032,2
-89,-12,1034,2
-96,-53,1025,2
-135,-52,1001,2
-168,-10,998,2
-167,17,995,2
-161,62,1017,2
-153,92,1057,2
-138,74,1068,2
-146,23,1051,2
-158,-22,1004,2
-142,-29,981,2
-126,-4,980,2
-106,34,1011,2
-89,17,1033,2
-75,-19,1028,2
-73,-60,1019,2
-73,-73,997,2
-88,-54,982,2
-136,-19,979,2
-192,3,997,2
-226,39,1031,2
-212,63,1072,2
-145,17,1058,2
-122,-14,1035,2
-114,-6,1015,2
-112,-11,995,2
-114,-25,951,2
-137,-5,935,2
-134,27,951,2
-110,45,992,2
-120,35,1018,2
-135,-6,1040,2
-153,-91,1007,2
-160,-95,999,2
-176,-68,1006,2
-176,-51,1027,2
-195,-45,1048,2
-221,-57,1046,2
-203,-24,1047,2
-182,-17,1029,2
-163,20,1026,2
-167,-4,1022,2
-163,-36,1028,2
-132,-85,1045,2
-131,-120,1024,2
-144,-99,993,2
-142,-61,966,2
-128,-31,956,2
-113,-44,954,2
-133,-84,933,2
-157,-103,953,2
-164,-115,975,2
-165,-93,1007,2
-168,-18,1056,2
-134,4,1074,2
-117,10,1067,2
-100,-18,1035,2
-107,4,1026,2
-105,47,1060,2
-94,29,1080,2
-63,12,1096,2
-21,-23,1089,2
3,-29,1042,2
-14,-27,982,2
-19,-13,945,2
-42,-11,922,2
-64,-2,923,2
-69,5,971,2
-56,-16,1023,2
-54,-53,1067,2
-50,-97,1084,2
-71,-120,1073,2
-53,-48,1078,2
-38,39,1090,2
-21,49,1049,2
-37,48,1010,2
-35,60,1005,2
-28,63,1016,2
-38,82,1046,2
-29,38,1044,2
-14,-14,1056,2
-8,-61,1030,2
-13,-29,1037,2
-15,0,1047,2
4,-4,1045,2
-8,-19,1025,2
-23,-28,995,2
-36,-15,988,2
-53,-6,999,2
-54,13,1027,2
-33,26,1081,2
-14,-5,1090,2
-8,-53,1080,2
-9,-9,1067,2
-21,16,1056,2
-13,30,1022,2
-28,-1,1003,2
-30,-2,992,2
-25,8,1016,2
-54,4,1006,2
-84,41,1009,2
-84,59,1006,2
-51,90,1027,2
-29,61,1039,2
-28,30,1053,2
-24,23,1079,2
-19,10,1086,2
12,11,1080,2
-12,-4,1027,2
-35,54,1006,2
-76,59,982,2
-86,119,1005,2
-90,70,1012,2
-115,60,1017,2
-105,58,1029,2
-73,35,1036,2
-5,38,1050,2
35,17,1047,2
45,40,1053,2
50,58,1047,2
1,60,1024,2
-45,91,994,2
-87,91,976,2
-108,107,989,2
-114,59,1007,2
-80,59,1047,2
-67,48,1061,2
-66,105,1085,2
-41,107,1091,2
-55,88,1065,2
-23,99,1053,2
8,74,1046,2
25,95,1044,2
8,24,985,2
-35,21,940,2
-47,46,931,2
-37,73,939,2
-5,92,974,2
-3,93,1003,2
-13,46,1027,2
-42,29,1064,2
-73,13,1083,2
-44,68,1123,2
-32,100,1132,2
-25,111,1100,2
-79,65,1022,2
-115,55,950,2
-165,61,927,2
-172,96,960,2
-171,128,1008,2
-157,127,1033,2
-125,96,1044,2
-100,30,1019,2
-77,32,1005,2
-66,33,1003,2
-57,52,1013,2
-53,37,1023,2
-70,32,1026,2
-70,30,1009,2
-72,24,992,2
-46,57,1003,2
-54,58,1006,2
-87,58,994,2
-143,51,993,2
-166,46,1003,2
-141,54,1052,2
-87,47,1103,2
-72,3,1123,2
-77,-32,1100,2
-80,-54,1037,2
-67,-8,1008,2
-23,15,997,2
-24,-13,972,2
-70,11,959,2
-84,44,979,2
-87,58,994,2
-101,63,1026,2
-83,28,1056,2
-43,-7,1076,2
-42,-29,1064,2
-68,-33,1031,2
-74,12,1014,2
-70,40,1008,2
-87,35,993,2
-71,49,1018,2
-69,7,1010,2
-88,0,1006,2
-115,-7,1005,2
-133,16,999,2
-132,31,1000,2
-121,54,1049,2
-100,81,1078,2
-114,39,1083,2
-105,12,1078,2
-70,0,1070,2
-70,-17,1014,2
-86,4,977,2
-110,-6,937,2
-130,22,926,2
-153,40,945,2
-147,50,984,2
-123,56,1037,2
-96,34,1069,2
-100,-14,1059,2
-115,-10,1026,2
-121,15,1032,2
-76,53,1049,2
-57,33,1061,2
-41,27,1053,2
-68,0,1020,2
-76,15,1007,2
-106,-2,976,2
-113,-4,966,2
-141,2,958,2
-155,34,1002,2
-112,50,1046,2
-104,-9,1066,2
-76,-39,1063,2
-80,-77,1048,2
-100,-42,1012,2
-123,7,1015,2
-115,41,1018,2
-105,40,1026,2
-111,16,1009,2
-127,-5,994,2
-116,-12,1004,2
-111,-23,1020,2
-107,2,1050,2
-102,5,1047,2
-96,-10,1027,2
-75,2,1009,2
-49,23,1023,2
-44,4,1010,2
-41,16,1030,2
-39,10,1046,2
-28,-6,1052,2
-22,-12,1055,2
-9,-32,1032,2
-31,-40,1001,2
-65,-37,979,2
-75,2,1000,2
-86,7,1013,2
-79,6,1046,2
-67,19,1073,2
-49,51,1109,2
-53,46,1088,2
-57,22,1058,2
-76,23,997,2
-107,55,984,2
-106,78,996,2
-110,98,1021,2
-69,74,1042,2
-32,27,1041,2
2,25,1041,2
10,11,1028,2
12,7,1013,2
-10,2,979,2
-30,44,1001,2
-46,68,1010,2
-68,92,1042,2
-79,76,1054,2
-55,25,1059,2
-78,-8,1040,2
-101,-22,1008,2
-116,-9,984,2
-120,44,1002,2
-102,86,1037,2
-100,76,1055,2
-101,88,1054,2
-93,74,1047,2
-56,58,1021,2
-50,33,977,2
-87,31,935,2
-76,105,991,2
-29,118,1051,2
9,96,1085,2
-7,-6,1032,2
-28,-31,987,2
-64,-53,932,2
-113,30,940,2
-122,113,1005,2
-111,148,1066,2
-185,158,1112,2
-222,67,1091,2
-179,15,1074,2
-145,7,1036,2
-110,37,1006,2
-88,58,984,2
-49,109,1023,2
3,85,1045,2
3,25,1044,2
-15,-17,1018,2
-41,-32,988,2
-57,20,972,2
-85,53,956,2
-103,89,965,2
-83,117,1000,2
-82,103,1045,2
-117,69,1086,2
-140,17,1106,2
-140,-26,1076,2
-139,-15,1039,2
-115,25,1011,2
-84,64,997,2
-78,59,970,2
-114,54,957,2
-106,98,1003,2
-55,109,1051,2
-51,74,1071,2
-54,19,1068,2
-57,0,1077,2
-58,32,1087,2
-103,30,1075,2
-138,13,1035,2
-130,-3,995,2
-121,-15,925,2
-111,6,926,2
-84,39,949,2
-51,55,988,2
-32,21,1027,2
-36,-46,1064,2
-44,-50,1092,2
-38,-50,1112,2
-77,-85,1064,2
-127,-57,1004,2
-161,-48,952,2
-150,-7,947,2
-132,14,969,2
-91,60,1029,2
-72,31,1051,2
-50,0,1056,2
-46,-66,1030,2
-58,-59,1000,2
-55,-4,1003,2
-66,0,1001,2
-73,22,1018,2
-76,-17,1034,2
-85,-42,1052,2
-99,-65,1052,2
-117,-76,1032,2
-115,-34,1029,2
-110,-10,1024,2
-110,-3,1015,2
-98,-35,997,2
-85,-65,984,2
-55,-74,990,2
-35,-92,1011,2
-14,-81,1030,2
-16,-78,1045,2
-6,-52,1051,2
-30,-35,1070,2
-54,-28,1067,2
-90,-30,1078,2
-95,-27,1093,2
-103,-44,1073,2
-112,-81,1001,2
-124,-79,958,2
-91,-28,980,2
-29,-8,1024,2
-2,-13,1047,2
-4,-45,1043,2
-10,-94,1018,2
-5,-107,1009,2
-23,-105,1012,2
-42,-63,1031,2
-63,-23,1064,2
-50,-27,1088,2
-46,-35,1097,2
-46,-28,1082,2
-48,11,1069,2
-28,33,1064,2
-10,24,1050,2
-2,-8,1039,2
24,-45,1028,2
19,-103,999,2
-14,-90,981,2
-55,-68,982,2
-45,-37,1000,2
-21,-8,1056,2
-42,-33,1068,2
-50,-53,1068,2
-52,-116,1001,2
-30,-47,1011,2
16,10,1069,2
62,31,1108,2
38,-38,1066,2
17,-99,978,2
2,-92,908,2
0,-20,903,2
-4,44,948,2
-76,139,1036,2
-131,125,1140,2
-107,21,1183,2
-48,-66,1212,2
3,-84,1118,2
-18,-78,1044,2
-87,-4,968,2
-122,35,936,2
-92,48,948,2
-61,31,989,2
-21,-7,1028,2
14,-79,1038,2
30,-122,1038,2
54,-82,1075,2
60,-64,1075,2
0,-112,1035,2
-78,-95,1005,2
-94,-58,1009,2
-103,-45,1004,2
-96,4,1023,2
-103,13,1021,2
-81,30,1039,2
-26,10,1054,2
15,-38,1047,2
31,-61,1045,2
27,-108,1024,2
31,-65,1038,2
-6,-74,1021,2
-53,-46,1017,2
-101,-49,1022,2
-113,-36,1009,2
-117,1,1035,2
-114,51,1053,2
-117,64,1062,2
-78,74,1080,2
-10,-16,1060,2
26,-38,1039,2
4,-61,999,2
-47,-7,960,2
-127,22,930,2
-148,117,954,2
-168,106,959,2
-154,140,986,2
-141,106,1011,2
-92,91,1022,2
-42,89,1041,2
-19,79,1020,2
1,120,1017,2
11,181,1033,2
-24,189,1029,2
-83,173,1030,2
-106,146,1040,2
-123,89,1006,2
-147,105,975,2
-170,126,964,2
-140,162,976,2
-127,196,1018,2
-137,201,1042,2
-141,152,1045,2
-129,108,1013,2
-120,103,978,2
-103,170,966,2
-97,202,958,2
-85,224,966,2
-95,196,988,2
-80,159,1006,2
-83,131,1016,2
-115,112,997,2
-146,149,981,2
-150,209,993,2
-108,263,1024,2
-108,216,1007,2
-117,156,981,2
-98,118,946,2
-79,99,936,2
-81,137,954,2
-91,133,970,2
-94,201,1018,2
-96,191,1012,2
-119,184,996,2
-153,187,986,2
-139,209,985,2
-146,225,993,2
-142,221,980,2
-137,195,968,2
-129,164,935,2
-122,158,927,2
-124,191,940,2
-98,258,1002,2
-78,287,1043,2
-82,262,1047,2
-113,229,1031,2
-122,231,1016,2
-102,263,1034,2
-99,248,1011,2
-113,239,992,2
-112,218,956,2
-108,232,961,2
-98,243,983,2
-90,251,1009,2
-105,260,1030,2
-106,269,1054,2
-99,230,1057,2
-100,202,1039,2
-103,174,998,2
-117,168,960,2
-148,158,923,2
-151,167,914,2
-163,173,905,2
-160,194,921,2
-142,199,942,2
-132,198,958,2
-132,194,970,2
-128,212,991,2
-115,214,1011,2
-94,191,983,2
-110,173,938,2
-115,169,922,2
-104,174,930,2
-91,166,951,2
-106,169,954,2
-128,175,968,2
-118,234,1001,2
-119,251,1019,2
-99,264,1031,2
-98,277,1045,2
-73,308,1044,2
-70,297,1023,2
-89,243,977,2
-110,242,959,2
-124,262,941,2
-126,243,934,2
-88,277,964,2
-71,322,996,2
-97,311,1007,2
-119,261,1003,2
-139,241,1017,2
-120,235,1058,2
-91,248,1084,2
-92,227,1055,2
-127,311,1025,2
-90,336,1032,2
-41,187,983,2
-89,148,923,2
-117,204,900,2
-177,156,874,2
-208,257,929,2
-146,303,1016,2
-93,272,1045,2
-84,226,1070,2
-87,199,1044,2
-105,197,1014,2
-133,229,984,2
-147,237,970,2
-120,252,957,2
-87,248,973,2
-74,201,968,2
-68,210,1001,2
-58,182,997,2
-63,232,1011,2
-82,268,1031,2
-69,257,1035,2
-62,223,1030,2
-81,215,1023,2
-78,247,1020,2
-64,249,1010,2
-85,224,960,2
-135,238,931,2
-172,230,909,2
-203,261,915,2
-178,295,952,2
-116,281,989,2
-74,263,1006,2
-70,256,1034,2
-63,235,1047,2
-95,181,1044,2
-137,232,1046,2
-131,267,1006,2
-112,295,938,2
-119,353,947,2
-81,361,984,2
-19,392,1051,2
-3,336,1072,2
-26,265,1049,2
-56,195,989,2
-96,193,948,2
-105,264,955,2
-92,341,988,2
-117,323,992,2
-159,304,998,2
-173,271,983,2
-184,244,970,2
-198,249,970,2
-169,274,999,2
-135,248,1021,2
-104,204,1005,2
-96,194,1004,2
-106,179,952,2
-116,210,957,2
-141,208,947,2
-161,216,936,2
-219,205,918,2
-277,192,911,2
-266,176,926,2
-243,193,962,2
-204,226,991,2
-165,246,1020,2
-133,277,1047,2
-115,233,1027,2
-144,258,1006,2
-150,275,998,2
-133,247,971,2
-144,245,968,2
-134,230,953,2
-143,226,954,2
-169,235,963,2
-190,240,991,2
-207,230,981,2
-233,231,967,2
-250,235,946,2
-226,251,942,2
-215,230,947,2
-200,198,980,2
-180,167,1003,2
-174,84,1005,2
-186,28,995,2
-194,44,992,2
-185,115,1011,2
-166,178,1031,2
-158,204,1017,2
-169,204,981,2
-153,226,985,2
-131,196,989,2
-101,184,1054,2
-63,200,1116,2
-47,166,1104,2
-89,125,1059,2
-118,109,993,2
-125,121,961,2
-105,132,956,2
-90,127,958,2
-65,128,966,2
-40,102,987,2
6,76,1002,2
74,24,1007,2
95,-8,1005,2
97,17,1032,2
115,22,1057,2
131,35,1076,2
139,2,1083,2
153,22,1095,2
153,40,1092,2
139,2,1051,2
140,-39,998,2
144,-53,969,2
172,-31,987,2
180,6,994,2
167,39,1009,2
143,27,1008,2
135,33,1030,2
130,17,1035,2
108,-7,1024,2
87,-11,1021,2
71,-10,1016,2
49,20,1011,2
14,53,1023,2
21,87,1056,2
66,77,1096,2
63,-11,1059,2
22,-73,988,2
-22,-102,923,2
-36,-30,931,2
-44,23,979,2
-39,87,1054,2
-60,72,1094,2
-34,17,1087,2
5,-27,1066,2
38,-50,1059,2
41,-77,1035,2
15,-107,990,2
-23,-101,967,2
-41,-70,965,2
-45,-49,997,2
-18,-28,1038,2
0,-39,1064,2
-2,-43,1060,2
-17,-52,1042,2
-23,-8,1023,2
-32,-26,986,2
-43,-4,969,2
-68,7,978,2
-66,47,1018,2
-5,26,1071,2
47,1,1084,2
56,-55,1056,2
42,-65,1026,2
5,-66,992,2
-6,-17,994,2
-36,-24,985,2
-49,12,998,2
-69,15,1009,2
-73,25,1025,2
-36,53,1072,2
-2,29,1086,2
1,-28,1067,2
7,-52,1039,2
22,-48,1033,2
43,0,1037,2
16,-8,994,2
-20,23,972,2
-39,19,952,2
-21,51,983,2
-10,58,1022,2
-27,15,1039,2
-36,-9,1070,2
6,-60,1079,2
21,-48,1063,2
9,-39,1025,2
6,11,1010,2
5,31,999,2
-19,46,993,2
-24,38,1004,2
-17,-4,1010,2
-4,-26,1032,2
2,-22,1052,2
-7,-22,1047,2
-16,-14,1030,2
-14,19,1016,2
-5,81,1009,2
4,142,1023,2
-2,124,1005,2
5,95,984,2
-14,91,983,2
-2,96,998,2
22,125,1020,2
6,87,1024,2
19,73,1023,2
18,67,1021,2
29,112,1014,2
-6,126,996,2
-5,147,998,2
11,148,1030,2
24,138,1051,2
12,110,1054,2
-12,84,1032,2
-26,60,1000,2
-40,57,976,2
-50,18,947,2
-35,78,938,2
-51,161,971,2
-84,175,983,2
-86,203,1023,2
-65,272,1088,2
-30,267,1127,2
-32,169,1087,2
-36,157,1055,2
-63,154,1013,2
-88,223,1011,2
-81,254,1006,2
-81,205,989,2
-65,166,973,2
-70,134,966,2
-104,126,958,2
-120,128,968,2
-77,126,1000,2
-49,119,1007,2
-52,169,1027,2
-80,122,999,2
-62,185,1006,2
-104,142,998,2
-60,217,1020,2
-80,183,1034,2
-49,190,1028,2
-112,127,1020,2
-83,180,1064,2
-35,160,1084,2
5,226,1119,2
14,148,1051,2
-3,145,1022,2
-49,133,982,2
-99,84,946,2
-135,94,941,2
-113,130,955,2
-142,123,961,2
-149,174,1001,2
-164,172,1025,2
-143,200,1052,2
-145,165,1043,2
-101,154,1075,2
-42,104,1078,2
-19,51,1054,2
-60,30,996,2
-102,95,976,2
-117,125,989,2
-87,133,1019,2
-99,121,1025,2
-94,121,1024,2
-68,96,1023,2
-36,72,1020,2
-9,35,1022,2
8,16,1022,2
12,9,1013,2
6,-11,996,2
-18,-1,1004,2
0,43,1044,2
13,56,1072,2
22,91,1088,2
33,91,1085,2
61,70,1057,2
64,46,1024,2
55,61,1021,2
65,68,1020,2
70,62,1015,2
88,71,1042,2
135,30,1052,2
151,0,1051,2
169,-12,1053,2
169,-12,1037,2
157,-14,1013,2
173,-30,986,2
155,-97,954,2
125,-63,965,2
105,-75,986,2
-137,-13,1092,2
143,-110,1018,2
218,-58,1025,2
172,-96,995,2
178,-107,992,2
173,-91,988,2
161,-96,1001,2
186,-61,1019,2
211,-54,1047,2
229,-23,1068,2
223,-44,1053,2
175,-87,1007,2
165,-101,1001,2
188,-142,969,2
190,-153,947,2
146,-156,927,2
113,-139,963,2
32,-115,1005,2
-37,27,1134,2
10,58,1186,2
0,-31,1145,2
121,-126,1055,2
204,-241,963,2
266,-125,987,2
277,-30,1017,2
254,-50,993,2
232,-4,974,2
184,-50,947,2
165,-71,929,2
135,-94,925,2
113,-79,941,2
78,-86,969,2
71,-67,1015,2
85,2,1141,2
152,42,1275,2
38,-116,1298,2
142,-258,967,2
94,-165,906,2
36,-71,867,2
170,-3,945,2
286,-27,949,2
340,-53,992,2
392,-87,974,2
321,-84,1011,2
228,-128,965,2
156,-124,997,2
78,-116,1036,2
64,-132,1051,2
77,-145,1073,2
70,-129,1090,2
149,-170,1043,2
82,-127,1000,2
125,-159,1000,2
127,-175,935,2
89,-121,983,2
149,-127,1001,2
156,-118,1047,2
177,-124,1054,2
190,-140,1062,2
171,-177,1010,2
123,-158,988,2
127,-132,955,2
95,-93,982,2
94,-61,1034,2
123,-86,1026,2
85,-93,1037,2
110,-132,952,2
21,-139,958,2
50,-173,944,2
97,-170,955,2
107,-152,988,2
64,-80,1050,2
27,-76,1074,2
0,-66,1103,2
51,-75,1076,2
34,-52,1085,2
68,-137,993,2
75,-125,1004,2
77,-137,961,2
105,-133,1011,2
119,-133,1012,2
108,-137,1006,2
41,-112,1002,2
-9,-123,1002,2
82,-152,961,2
45,-76,1047,2
78,-111,1019,2
80,-139,1020,2
36,-157,1022,2
26,-166,999,2
31,-157,1068,2
46,-181,1040,2
43,-174,992,2
44,-168,972,2
47,-146,1003,2
112,-170,1010,2
121,-165,1055,2
101,-187,1036,2
104,-195,1002,2
47,-183,989,2
71,-196,951,2
61,-165,967,2
79,-157,1003,2
51,-153,1035,2
48,-172,1054,2
-19,-155,1094,2
-17,-195,1049,2
29,-161,1043,2
39,-154,1001,2
40,-169,973,2
46,-197,946,2
0,-218,889,2
50,-173,984,2
72,-218,922,2
42,-130,1067,2
123,-160,1057,2
97,-164,1063,2
77,-229,1007,2
66,-167,988,2
28,-167,931,2
52,-148,974,2
66,-137,995,2
58,-97,1084,2
33,-104,1162,2
11,-215,1116,2
48,-212,1056,2
-35,-152,1073,2
47,-229,947,2
89,-187,920,2
119,-173,904,2
140,-161,904,2
115,-195,954,2
129,-228,922,2
107,-164,1009,2
139,-164,1021,2
115,-149,1051,2
80,-171,1020,2
-100,-128,1044,2
-54,-160,1049,2
-44,-141,1070,2
-31,-141,1142,2
77,-224,1057,2
16,-196,985,2
1,-182,945,2
-1,-171,919,2
47,-160,929,2
146,-126,986,2
202,-122,1045,2
213,-206,1014,2
166,-153,1038,2
66,-152,1006,2
39,-144,997,2
26,-86,1028,2
-23,-32,1071,2
-14,-97,1064,2
-56,-154,1058,2
18,-221,1007,2
49,-251,946,2
-2,-187,994,2
99,-257,964,2
69,-242,983,2
135,-213,986,2
108,-129,1051,2
106,-134,1049,2
54,-117,1024,2
-2,-72,1104,2
45,-133,1014,2
-51,-90,1111,2
18,-177,1006,2
44,-159,930,2
-43,-89,1036,2
131,-211,880,2
63,-105,965,2
22,-140,1014,2
141,-166,896,2
25,-56,1019,2
119,-79,988,2
101,-27,967,2
56,-56,1039,2
93,-73,969,2
14,-43,1073,2
17,-47,1040,2
-11,-22,1099,2
19,-14,1104,2
-11,26,1114,2
18,-23,1055,2
29,-41,1015,2
33,-88,1000,2
38,-142,979,2
32,-142,993,2
108,-138,971,2
41,-71,963,2
36,-39,992,2
24,-49,942,2
11,-29,1010,2
39,-59,980,2
39,-67,1026,2
27,-75,1056,2
-43,-95,1060,2
6,-92,1077,2
-17,-79,1082,2
-18,-91,1031,2
-30,-70,991,2
-69,-60,978,2
-43,-50,1008,2
-41,-69,978,2
16,-64,1041,2
1,-94,1030,2
25,-127,1008,2
-1,-68,1004,2
11,-65,990,2
7,-47,977,2
26,-1,990,2
-42,24,1034,2
-20,-34,1000,2
-26,0,1068,2
-8,-52,1036,2
-28,-51,1040,2
-4,-94,1015,2
-35,-64,1031,2
55,-80,938,2
-36,5,984,2
-12,-56,929,2
-34,-40,973,2
-69,-60,989,2
-31,-54,1067,2
-31,-72,1041,2
-47,-33,1077,2
-71,21,1059,2
-54,-23,1061,2
11,-50,1019,2
-23,-39,1065,2
-34,-84,963,2
-69,-54,996,2
-53,-68,960,2
-36,-46,947,2
26,-48,918,2
-41,-10,957,2
-55,-21,972,2
-19,-21,1021,2
-34,-2,1116,2
-45,-10,1127,2
-1,-51,1123,2
-27,-18,1089,2
-12,-36,1010,2
-19,-29,1028,2
23,-55,996,2
27,-23,1006,2
0,-7,1003,2
-17,-22,1000,2
-45,-37,991,2
-40,-36,1001,2
-35,-47,977,2
-66,-25,1038,2
-45,-60,993,2
-62,-35,1053,2
-53,-59,1044,2
-32,-77,1064,2
29,-101,1047,2
10,-97,992,2
-30,-65,995,2
-12,-86,956,2
-13,-40,974,2
7,15,1046,2
46,-10,1037,2
-16,-6,1064,2
-29,-44,1026,2
-4,-68,1022,2
-18,-71,1013,2
-36,-61,993,2
-70,-73,978,2
-88,-60,987,2
-49,-66,938,2
-19,3,963,2
-78,21,1007,2
2,-59,981,2
4,-47,1041,2
49,-74,1029,2
118,-64,1076,2
72,-67,1063,2
56,-75,1032,2
56,-75,1014,2
39,-74,1000,2
20,-56,997,2
-4,-36,988,2
-51,12,996,2
-38,25,1002,2
-22,1,968,2
-147,-4,1010,2
-52,-81,984,2
-97,-72,1042,2
-66,-61,1114,2
9,-101,1060,2
-44,-55,1101,2
-17,-105,1001,2
-24,-68,1027,2
4,-82,945,2
19,0,1019,2
69,-27,1033,2
84,-58,1022,2
-9,-40,1083,2
58,-163,977,2
81,-102,958,2
-12,-40,1007,2
-4,-82,928,2
-29,-56,999,2
-58,-53,1037,2
-37,-88,1082,2
21,-91,1118,2
-19,-78,1122,2
24,-108,1055,2
65,-63,1053,2
69,-73,990,2
85,-64,1009,2
106,-106,1002,2
85,-119,1024,2
95,-100,1073,2
135,-103,1015,2
42,-35,1038,2
54,-61,1001,2
0,-54,1045,2
58,-101,1016,2
65,-70,1051,2
-1,-101,1012,2
-26,-101,986,2
-55,-121,985,2
-37,-100,1006,2
51,-68,986,2
-5,-66,1009,2
-15,-93,1052,2
0,-144,1025,2
9,-86,1047,2
11,-115,1034,2
-23,-97,1019,2
-62,-127,995,2
-50,-82,984,2
47,-99,985,2
24,-108,997,2
56,-148,964,2
28,-111,995,2
36,-132,1012,2
45,-118,1053,2
116,-148,1042,2
0,-106,1085,2
20,-123,1016,2
-72,-67,978,2
-69,-19,994,2
-11,27,1018,2
35,-39,1095,2
117,-143,1084,2
83,-126,1074,2
39,-118,1022,2
15,-94,1024,2
71,-86,1015,2
139,-66,991,2
94,-51,985,2
75,-95,935,2
29,-107,936,2
8,-100,929,2
31,-62,1005,2
7,-77,1031,2
40,-84,1084,2
13,-114,1088,2
1,-154,1084,2
-17,-160,1079,2
26,-180,1029,2
8,-119,996,2
-53,-84,976,2
-34,-56,1034,2
100,-129,975,2
61,-51,1005,2
50,-73,1018,2
35,-106,987,2
111,-123,973,2
106,-59,977,2
50,-43,1014,2
104,-86,1001,2
74,-49,1068,2
107,-67,1072,2
140,-72,1032,2
0,-31,1034,2
-40,-53,1010,2
-64,-72,999,2
2,-107,1013,2
56,-120,1047,2
6,-217,1007,2
48,-283,942,2
22,-207,944,2
90,-141,969,2
78,-109,1042,2
79,-139,1013,2
139,-105,1119,2
154,-169,1042,2
149,-184,1008,2
109,-159,1029,2
77,-160,1021,2
81,-127,1059,2
74,-45,1076,2
41,-4,1116,2
21,-60,1047,2
22,-105,976,2
54,-125,960,2
61,-204,937,2
169,-264,893,2
125,-219,956,2
127,-217,985,2
91,-239,968,2
139,-185,1057,2
215,-158,1083,2
219,-160,1075,2
164,-130,1059,2
97,-134,1037,2
70,-152,991,2
70,-83,967,2
7,-58,1220,2
26,-48,1237,2
18,-160,1013,2
-13,-146,1021,2
-45,-155,928,2
-28,-151,895,2
-10,-190,922,2
43,-155,951,2
31,-96,1000,2
38,-107,1065,2
42,-119,1019,2
30,-106,1095,2
43,-100,1049,2
43,-115,1076,2
-38,-82,1102,2
-111,-126,1070,2
-145,-64,1063,2
-179,-6,953,2
-168,8,1006,2
-102,-5,1081,2
-63,-129,1002,2
-87,-307,863,2
75,-183,990,2
106,-37,1230,2
144,-138,1063,2
26,-54,1009,2
98,-26,1002,2
53,0,998,2
89,-17,1097,2
78,-35,1112,2
96,-15,1064,2
23,-9,987,2
-9,14,999,2
24,-44,1039,2
86,-44,1085,2
43,-64,1088,2
2,-93,1040,2
-19,-74,967,2
-84,-33,969,2
-68,-42,990,2
-44,-23,1050,2
-9,-39,1088,2
-9,-49,1052,2
-40,-90,1011,2
-110,-31,1014,2
-131,-29,1070,2
-61,-86,1017,2
-157,42,983,2
-190,-91,835,2
-234,-109,1006,2
-149,-38,1112,2
-130,-38,1024,2
-67,-49,1005,2
-135,-51,1079,2
-97,-100,1053,2
-77,-146,939,2
-165,-136,948,2
-182,-105,990,2
-138,-77,997,2
-137,-73,1033,2
-60,-111,963,2
-126,-58,995,2
-108,-52,1000,2
-92,-81,1010,2
-80,-78,1060,2
-79,-85,1064,2
-87,-153,1008,2
-124,-145,987,2
-163,-128,996,2
-200,-136,975,2
-229,-111,1044,2
-81,-141,983,2
-219,-110,995,2
-214,-94,1014,2
-143,-121,949,2
-233,-115,962,2
-168,-116,952,2
-148,-107,984,2
-193,-156,985,2
-108,-114,1008,2
-101,-122,980,2
-128,-94,1001,2
-115,-120,1020,2
-81,-119,1050,2
-76,-180,1019,2
-120,-152,1008,2
-176,-109,997,2
-167,-105,975,2
-230,-70,1019,2
-138,-94,966,2
-203,-36,1019,2
-232,-55,1019,2
-199,-69,991,2
-252,-40,1035,2
-186,-91,971,2
-235,-122,967,2
-214,-100,981,2
-217,-151,936,2
-255,-137,962,2
-209,-126,958,2
-259,-92,1003,2
-188,-44,1054,2
-186,-49,1061,2
-134,-58,1025,2
-139,-27,1002,2
-212,-29,982,2
-79,-55,920,2
-203,-67,943,2
-116,-43,993,2
-112,-62,987,2
-136,-62,1010,2
-83,12,1030,2
-156,80,1070,2
-138,65,1058,2
-246,107,1038,2
-254,80,1014,2
-242,61,1070,2
-228,34,1036,2
-188,79,1062,2
-157,-14,1018,2
-167,-13,992,2
-74,-50,908,2
-146,29,937,2
-73,6,953,2
-41,-13,929,2
-117,41,1053,2
-73,40,1061,2
-108,21,1115,2
-84,-75,1038,2
-144,35,1033,2
-194,34,1041,2
-100,21,1035,2
-34,16,1053,2
7,42,1070,2
83,1,1033,2
20,-49,930,2
-88,-2,957,2
-23,50,933,2
-77,89,1018,2
32,5,1022,2
57,-31,1044,2
-48,-56,1080,2
7,-99,1048,2
4,-74,1039,2
62,-70,1050,2
8,-53,1008,2
-2,-6,1027,2
-12,1,979,2
72,4,1032,2
76,-21,1038,2
13,-80,1072,2
-12,-76,1069,2
70,-130,1006,2
24,-84,1026,2
70,-116,1022,2
76,-132,987,2
61,-114,1000,2
124,-109,956,2
76,-78,1008,2
116,-105,983,2
100,-82,1002,2
92,-83,1042,2
108,-130,1035,2
53,-148,1085,2
106,-192,1073,2
128,-223,999,2
22,-137,1091,2
165,-196,997,2
54,-98,1028,2
107,-101,1097,2
162,-91,1007,2
167,-82,1036,2
119,-34,1035,2
154,-83,1024,2
90,-107,1000,2
107,-112,1051,2
199,-150,975,2
176,-108,1053,2
201,-150,952,2
121,-88,1034,2
156,-137,976,2
150,-106,973,2
159,-64,1065,2
193,-83,1017,2
144,-69,1067,2
144,-95,1048,2
119,-96,1095,2
160,-132,1080,2
93,-95,1105,2
97,-152,1020,2
83,-133,956,2
92,-135,922,2
72,-109,938,2
118,-149,944,2
169,-129,1024,2
216,-146,1039,2
148,-127,1084,2
121,-142,1104,2
56,-142,1075,2
90,-146,1073,2
116,-140,979,2
39,-108,999,2
27,-154,955,2
70,-170,972,2
129,-177,962,2
48,-126,1019,2
34,-137,1064,2
105,-186,1017,2
169,-126,1059,2
174,-102,1089,2
116,-172,1045,2
67,-209,1038,2
73,-205,988,2
110,-141,1017,2
98,-111,995,2
52,-86,999,2
44,-113,987,2
62,-132,1007,2
121,-156,1016,2
189,-155,1011,2
127,-130,1033,2
104,-151,971,2
62,-115,972,2
88,-96,1013,2
143,-110,1003,2
126,-92,1061,2
92,-116,1068,2
90,-171,1027,2
46,-118,1085,2
95,-144,1069,2
119,-102,1091,2
123,-116,1060,2
82,-120,1027,2
72,-139,927,2
26,-73,993,2
125,-107,962,2
162,-92,962,2
157,-54,1031,2
169,-98,1013,2
122,-136,1019,2
136,-127,1043,2
212,-136,1003,2
132,-86,1038,2
59,-96,1016,2
95,-98,996,2
107,-60,1019,2
106,-57,1015,2
35,-86,1009,2
83,-101,1025,2
61,-118,997,2
61,-76,1074,2
122,-103,1025,2
122,-94,1043,2
119,-70,1025,2
94,-81,1020,2
87,-117,954,2
56,-70,1010,2
115,-78,960,2
132,-26,1012,2
97,-15,1033,2
127,-85,967,2
0,-17,1066,2
75,-69,1059,2
49,-41,1054,2
80,15,1137,2
85,19,1103,2
83,-13,993,2
78,-3,968,2
117,-63,907,2
118,-47,935,2
137,-54,943,2
135,-84,972,2
137,-92,1007,2
79,-92,1043,2
54,-91,1099,2
37,-95,1094,2
36,-67,1101,2
66,-42,1082,2
58,-86,984,2
-2,-67,1021,2
0,-119,1000,2
33,-153,1043,2
54,-153,1087,2
131,-154,1078,2
120,-143,1040,2
63,-127,1006,2
67,-140,947,2
46,-125,913,2
67,-92,936,2
64,-107,916,2
37,-103,963,2
18,-117,1004,2
21,-165,1046,2
31,-195,1092,2
62,-221,1089,2
4,-176,1068,2
-51,-146,1056,2
7,-158,985,2
26,-104,1015,2
72,-114,1003,2
94,-140,983,2
59,-153,991,2
60,-176,993,2
60,-195,1015,2
30,-190,1033,2
37,-170,1073,2
45,-159,1043,2
27,-120,1043,2
40,-139,985,2
-14,-144,972,2
6,-175,961,2
50,-172,979,2
39,-171,1026,2
65,-194,1024,2
59,-214,1027,2
85,-223,987,2
61,-200,985,2
81,-182,972,2
126,-145,993,2
143,-108,1024,2
118,-124,1021,2
78,-129,1036,2
39,-134,1054,2
43,-166,1049,2
37,-175,1023,2
18,-174,1002,2
56,-175,956,2
47,-160,962,2
122,-174,937,2
132,-120,990,2
160,-141,1012,2
187,-131,1050,2
167,-132,1066,2
191,-132,1048,2
152,-86,1060,2
201,-132,1016,2
186,-105,985,2
131,-107,989,2
93,-121,922,2
87,-83,980,2
193,-94,982,2
208,-82,1068,2
234,-159,1040,2
204,-141,1045,2
202,-171,1000,2
227,-109,1033,2
260,-98,1037,2
286,-56,1067,2
218,-61,1003,2
149,-21,1039,2
138,-79,919,2
184,-28,1009,2
226,-66,1001,2
297,-124,975,2
272,-118,1029,2
272,-141,967,2
257,-122,1007,2
224,-97,1016,2
237,-110,1008,2
221,-57,1057,2
213,-48,1060,2
182,-66,1028,2
146,-49,1018,2
211,-72,972,2
241,-63,984,2
271,-70,992,2
302,-124,985,2
279,-148,1003,2
279,-163,1009,2
187,-136,988,2
79,-129,1017,2
38,-130,989,2
-18,-68,1047,2
64,-49,1045,2
74,-103,1016,2
21,-122,982,2
59,-116,994,2
91,-134,964,2
121,-76,987,2
65,-9,1048,2
18,-23,1056,2
24,-34,1071,2
10,-50,1047,2
-7,-52,1028,2
7,-67,977,2
-44,-42,981,2
26,-55,984,2
16,-31,995,2
63,7,1083,2
59,-15,1047,2
41,-7,1051,2
14,15,1012,2
38,28,964,2
39,87,986,2
49,118,985,2
8,140,1026,2
34,87,1014,2
10,38,1003,2
-2,18,1034,2
16,-17,1020,2
3,-14,1070,2
4,9,1063,2
-31,-90,1028,2
-25,-106,998,2
-9,-68,951,2
44,-70,960,2
56,-79,928,2
83,-69,964,2
85,-55,999,2
94,-77,1005,2
90,-42,1020,2
51,27,1080,2
54,2,1049,2
37,-7,1074,2
-25,-33,1044,2
-6,-64,1019,2
-12,-40,1008,2
-36,2,1011,2
44,-45,993,2
22,-33,1007,2
23,-52,1009,2
40,-55,1029,2
44,-48,1060,2
34,-35,1064,2
6,-111,1028,2
14,-60,1031,2
-58,-9,1049,2
-12,-65,996,2
-33,-36,993,2
-26,-85,936,2
-56,-44,979,2
-52,-64,1001,2
-48,-62,1038,2
-47,-60,1101,2
-35,-46,1105,2
-104,-98,1084,2
-103,-94,1003,2
-180,-41,974,2
-101,-48,890,2
-104,-25,924,2
-138,-39,941,2
-117,-71,956,2
-75,-41,1012,2
-113,-45,1061,2
-129,-53,1076,2
-174,-22,1106,2
-210,-56,1095,2
-178,-36,1034,2
-229,45,1021,2
-284,100,995,2
-202,71,979,2
-233,88,977,2
-197,39,972,2
-198,73,1017,2
-186,2,1037,2
-151,14,1036,2
-194,26,1070,2
-290,34,1041,2
-261,40,1012,2
-330,75,1023,2
-365,63,1046,2
-277,89,979,2
-362,49,1015,2
-346,82,991,2
-335,77,1011,2
-317,45,1075,2
-187,82,976,2
-371,58,1082,2
-269,112,1057,2
-196,112,1025,2
-230,97,999,2
-185,111,1012,2
-192,120,1035,2
-262,112,1063,2
-235,94,1048,2
-229,119,1063,2
-202,114,1006,2
-269,112,1056,2
-224,104,1034,2
-275,96,1085,2
-261,105,1075,2
-253,94,1107,2
-260,183,1023,2
-244,66,991,2
-306,172,978,2
-212,91,979,2
-238,76,973,2
-220,47,985,2
-218,72,1004,2
-244,123,1102,2
-128,152,1075,2
-238,176,1109,2
-236,136,1094,2
-131,151,1059,2
-190,75,1009,2
-174,48,943,2
-223,102,960,2
-204,116,1036,2
-169,191,1014,2
-193,149,1007,2
-194,148,1006,2
-158,141,963,2
-231,126,1001,2
-201,137,1040,2
-185,94,1018,2
-209,67,1109,2
-119,162,1081,2
-145,131,1089,2
-158,138,1108,2
-155,124,1019,2
-160,65,971,2
-198,74,994,2
-166,174,993,2
-142,189,1014,2
-156,117,1062,2
-138,111,1045,2
-67,98,971,2
-149,50,994,2
-197,84,1015,2
-165,79,1026,2
-112,15,1075,2
-174,74,1093,2
-95,51,988,2
-161,29,1079,2
-162,42,1026,2
-149,-1,996,2
-194,-30,1086,2
-54,45,1049,2
-130,81,1109,2
-177,-8,1041,2
-181,-13,989,2
-142,7,959,2
-162,-4,997,2
-101,-3,1030,2
-119,-2,1055,2
-22,47,1049,2
-102,48,1056,2
-113,-88,979,2
-132,-97,869,2
-254,-70,953,2
-270,-60,1030,2
-153,-112,958,2
-217,-8,1027,2
-171,-5,1045,2
-239,13,1000,2
-215,20,1006,2
-162,0,982,2
-104,-40,967,2
-155,-17,980,2
-145,-10,971,2
-285,-30,999,2
-107,-39,981,2
-117,19,1070,2
-86,40,1085,2
-98,99,1069,2
-206,89,1126,2
-82,68,1037,2
-133,73,1091,2
1,73,1000,2
-251,127,1071,2
-196,76,1076,2
-22,42,995,2
-92,-13,933,2
-116,-9,906,2
-66,-26,903,2
-110,-34,954,2
-102,-33,988,2
-70,25,1005,2
-136,19,1065,2
-99,28,1051,2
-164,18,1061,2
-102,-27,1034,2
-135,-20,1054,2
-91,1,974,2
-126,42,952,2
-391,60,1128,2
-191,50,1105,2
-164,55,1171,2
-42,28,1140,2
-84,77,1058,2
-93,102,972,2
-100,99,957,2
-93,17,885,2
-128,3,906,2
-126,24,961,2
-79,76,976,2
-163,79,1034,2
-84,-20,999,2
-51,17,943,2
33,-8,901,2
-391,107,1203,2
-211,50,1127,2
-143,65,1200,2
-129,-7,1254,2
-43,20,1133,2
-240,25,1105,2
-27,-20,868,2
-263,22,971,2
-144,29,928,2
-128,-2,890,2
-263,23,980,2
-143,18,983,2
-146,17,981,2
-186,33,982,2
-75,-8,896,2
-258,36,1058,2
-108,5,998,2
-196,57,1139,2
-130,49,1222,2
-48,-30,1158,2
-90,-80,1140,2
-113,-68,1095,2
-66,8,994,2
-79,25,922,2
-144,-20,932,2
-110,18,939,2
-85,10,978,2
-102,32,978,2
-165,-22,1061,2
-66,-50,979,2
-145,-6,1014,2
-113,-41,1028,2
-86,-61,980,2
-194,-67,996,2
-153,-44,967,2
-142,-47,985,2
-172,-39,1022,2
-191,-42,1041,2
-210,36,1099,2
-169,18,1104,2
-163,-18,1036,2
-235,31,1059,2
-80,2,990,2
-89,-3,1001,2
-91,-18,991,2
-74,-52,927,2
-121,6,977,2
-143,-19,972,2
-51,-12,1004,2
53,5,1054,2
46,21,1104,2
38,-53,1105,2
16,-64,1080,2
15,-78,1035,2
-86,-26,1039,2
-39,-76,1005,2
-15,-18,998,2
-16,-14,1060,2
-9,6,1025,2
-21,6,1082,2
-21,6,1116,2
-42,-7,1116,2
-28,-93,1068,2
5,-88,996,2
-80,-54,942,2
-29,-56,931,2
-101,-66,913,2
-23,-40,963,2
19,-50,993,2
96,-29,1026,2
106,-46,1066,2
135,-82,1028,2
130,-72,1018,2
80,-88,980,2
85,-106,970,2
108,-141,968,2
63,-82,980,2
47,-57,1006,2
25,10,1052,2
13,-3,1050,2
14,19,1061,2
-55,-3,1064,2
-17,14,1018,2
11,3,961,2
8,-19,956,2
28,-55,921,2
18,-52,906,2
0,-70,961,2
45,-115,961,2
37,-57,1013,2
24,-86,1085,2
105,-118,1072,2
77,-60,1060,2
11,-72,1043,2
7,-20,1041,2
9,-33,1001,2
11,18,1035,2
40,21,1066,2
26,54,1094,2
67,-32,1065,2
113,-34,1009,2
19,-27,969,2
67,-63,974,2
70,-43,975,2
112,-69,944,2
59,-8,983,2
48,-48,982,2
41,-18,980,2
0,-10,1072,2
52,-51,1103,2
89,33,1164,2
20,-52,1137,2
64,-107,1012,2
92,-104,908,2
-51,-24,885,2
58,-71,919,2
55,-59,925,2
100,-42,965,2
33,42,1020,2
27,-31,1059,2
-5,22,1098,2
-10,67,1069,2
85,-23,1083,2
11,-26,1050,2
-26,-18,969,2
25,-15,964,2
12,7,923,2
-38,35,966,2
-30,-3,1037,2
2,40,1034,2
20,-21,1029,2
-69,-53,1033,2
-31,-30,1003,2
-50,6,962,2
-101,-1,1043,2
-44,-5,1043,2
-106,55,1052,2
-27,2,1039,2
-27,58,983,2
-50,51,1013,2
-4,9,969,2
-27,-39,984,2
-1,-84,988,2
-81,-44,1019,2
-73,-22,1052,2
25,37,1016,2
1,77,1078,2
-8,28,1041,2
-3,7,980,2
-16,-8,931,2
-72,16,977,2
-42,-12,950,2
62,16,1023,2
9,76,996,2
22,26,1107,2
-64,48,1079,2
-52,80,1098,2
49,22,1070,2
-17,63,1068,2
15,-37,990,2
36,-44,952,2
-41,-5,872,2
-56,40,942,2
-142,29,978,2
-128,30,1062,2
-78,157,1063,2
-35,9,1102,2
-71,-71,1104,2
-49,-1,1011,2
-79,24,1013,2
-54,-10,969,2
-136,38,1004,2
14,40,951,2
-46,102,979,2
-202,98,1071,2
-116,102,1099,2
5,150,1061,2
-14,60,1013,2
-120,98,1000,2
-144,125,978,2
-92,79,1005,2
-54,53,1001,2
-102,53,1001,2
-104,69,1006,2
-25,64,1020,2
-23,125,1031,2
-79,101,1063,2
-85,128,1086,2
-88,89,1110,2
-22,93,1050,2
-82,93,1006,2
-176,97,1013,2
-163,97,1006,2
-175,102,1009,2
-130,119,1033,2
-58,56,976,2
-94,88,914,2
-198,77,996,2
-44,101,983,2
-30,144,966,2
-31,76,1002,2
-17,139,958,2
-36,100,984,2
-66,140,981,2
-106,137,1044,2
-79,174,1075,2
-60,216,1131,2
-63,151,1120,2
-86,179,1107,2
-64,125,1015,2
-124,93,988,2
-49,115,939,2
-43,113,929,2
-25,110,930,2
-18,124,951,2
-34,170,994,2
-3,157,986,2
-64,214,1054,2
-35,187,1090,2
-47,228,1092,2
-23,155,1104,2
-14,143,1094,2
-54,163,1094,2
-52,149,1064,2
-25,148,1032,2
-41,142,958,2
-26,127,923,2
12,125,835,2
-61,143,879,2
-81,151,944,2
-97,160,1038,2
-125,226,1126,2
38,226,1133,2
24,189,1127,2
33,190,1098,2
-40,235,1102,2
-14,206,1142,2
28,149,1037,2
-31,89,1044,2
9,138,927,2
-29,210,904,2
-28,200,962,2
-48,174,919,2
-82,155,923,2
-163,113,1005,2
-88,106,955,2
-153,107,1025,2
-165,99,1069,2
-76,95,1043,2
-164,134,1123,2
-82,99,1110,2
-75,180,1072,2
-152,164,1145,2
-26,204,966,2
-127,206,1056,2
-108,162,936,2
-52,126,898,2
-173,86,908,2
-144,144,908,2
-248,145,1005,2
-146,189,1070,2
-60,264,1111,2
-101,122,1107,2
-130,109,1042,2
-87,85,1019,2
-226,139,1023,2
-192,124,1054,2
26,133,979,2
-34,68,897,2
9,128,889,2
-5,219,895,2
-4,205,985,2
30,282,1034,2
-33,290,1152,2
-93,208,1178,2
-48,238,1150,2
-35,129,1175,2
-43,71,1173,2
32,67,1033,2
-72,41,1066,2
47,111,916,2
-137,104,1051,2
-144,160,1030,2
0,252,884,2
-103,50,948,2
-100,114,915,2
-128,142,986,2
-58,45,1031,2
26,45,984,2
23,32,1003,2
26,129,988,2
-64,194,1019,2
-56,159,1053,2
-29,255,1092,2
-52,210,1077,2
-56,6,977,2
-188,177,1067,2
-21,149,1037,2
-2,179,1019,2
-51,22,1043,2
23,62,996,2
12,113,1010,2
92,79,949,2
-72,141,1085,2
58,141,1003,2
60,114,1037,2
95,48,958,2
4,117,988,2
-14,128,951,2
-39,181,1016,2
48,180,1070,2
100,207,1081,2
77,44,1043,2
68,-6,930,2
-86,236,1114,2
45,255,1072,2
58,200,1126,2
-102,46,1117,2
-14,22,1101,2
31,111,1056,2
-10,83,1015,2
-37,53,1049,2
-73,134,993,2
54,-33,910,2
-53,1,1023,2
-63,132,915,2
-90,13,1001,2
6,-32,977,2
-21,-12,1021,2
-111,-87,1087,2
42,-68,1047,2
-13,-67,1060,2
-136,-17,1124,2
-25,7,1055,2
-26,-39,1071,2
-75,-7,1060,2
-25,0,995,2
-112,-15,1062,2
-6,-15,997,2
-22,-33,1011,2
-43,6,959,2
-136,9,1010,2
-7,9,1005,2
16,-15,1010,2
4,-12,1057,2
21,5,1003,2
27,-29,1011,2
35,-9,998,2
-23,7,1072,2
25,-46,1090,2
71,-29,1075,2
25,-34,1072,2
23,-60,1066,2
105,-40,964,2
-34,10,1003,2
34,-44,965,2
30,64,956,2
-15,40,1012,2
77,54,1075,2
61,109,1018,2
-9,31,1092,2
72,20,973,2
61,-18,968,2
-32,16,1031,2
-8,26,1031,2
69,51,1079,2
123,41,1091,2
3,6,1044,2
66,33,998,2
-73,86,1042,2
24,73,1044,2
101,59,1034,2
79,3,1016,2
55,25,991,2
38,7,949,2
17,36,965,2
102,-11,933,2
88,54,961,2
113,51,988,2
71,102,1045,2
77,98,1116,2
107,70,1071,2
98,46,1065,2
163,-5,988,2
109,19,957,2
90,-7,974,2
85,-19,976,2
59,28,1018,2
52,38,1063,2
36,36,1094,2
97,53,1012,2
99,10,1041,2
81,-10,995,2
2,13,1005,2
69,-126,990,2
61,-130,994,2
43,-142,1021,2
41,-109,1040,2
96,-72,1027,2
131,-53,1041,2
81,-22,976,2
40,-36,992,2
11,-46,991,2
49,-68,988,2
36,-47,1053,2
48,-78,1053,2
69,-40,1043,2
11,-65,1017,2
76,-110,967,2
25,-55,930,2
-32,-91,968,2
19,-66,957,2
-7,-7,1054,2
78,-23,1085,2
67,-31,1154,2
146,-137,1031,2
67,-70,1008,2
-61,-63,1039,2
-38,-57,1059,2
163,-35,915,2
17,-42,1028,2
65,-71,931,2
4,0,876,2
6,-78,958,2
-29,-50,943,2
-52,-30,1064,2
10,28,1135,2
160,-60,1094,2
6,-69,1152,2
55,-60,1038,2
83,-90,1011,2
51,-71,940,2
28,-91,898,2
-26,-36,970,2
-15,-11,981,2
72,88,1053,2
94,32,1119,2
132,-45,1033,2
74,-12,1056,2
69,-63,1001,2
-2,-15,1021,2
53,-67,980,2
65,-10,1030,2
52,4,1022,2
62,40,1037,2
13,13,1065,2
111,-55,976,2
72,1,954,2
13,-64,989,2
-16,-18,1010,2
36,-5,1021,2
133,19,1073,2
26,-48,1058,2
7,-55,1010,2
30,7,1015,2
68,-30,1008,2
17,-9,1012,2
12,-15,993,2
43,-18,1036,2
44,-13,1030,2
43,-41,1038,2
26,-46,1023,2
-7,-54,1044,2
66,-35,996,2
72,-62,1018,2
7,-44,999,2
14,-66,1005,2
63,-75,968,2
19,-36,999,2
14,-18,978,2
0,-8,1016,2
45,-36,1042,2
61,-27,1045,2
47,-52,1035,2
12,-63,1058,2
1,-42,1051,2
47,-41,1057,2
37,-33,1026,2
2,-69,1010,2
21,-49,975,2
18,-65,973,2
-7,-38,967,2
-39,-54,1037,2
36,-55,1027,2
22,-21,1096,2
18,-50,1052,2
7,-72,1015,2
-45,-90,1002,2
-35,-56,995,2
-6,-59,1015,2
64,-66,998,2
-19,-69,1044,2
64,-81,953,2
4,-68,1011,2
12,-76,991,2
24,-31,990,2
6,-71,1056,2
45,-54,1044,2
31,-48,1026,2
-25,-65,1062,2
10,-49,1043,2
15,-40,1105,2
53,-48,1075,2
-21,-43,1078,2
-18,-61,1023,2
-54,-40,1020,2
-48,-62,996,2
8,-68,972,2
-1,-51,949,2
-51,-44,969,2
-30,-49,1018,2
47,-48,1060,2
29,-63,1124,2
29,-77,1090,2
-9,-86,1091,2
4,-87,1044,2
-8,-108,1043,2
-9,-83,978,2
33,-100,953,2
40,-80,962,2
38,-59,935,2
28,-99,955,2
13,-80,981,2
-55,-67,1104,2
29,-98,1090,2
7,-70,1168,2
42,-103,1132,2
66,-117,1076,2
11,-130,995,2
-19,-122,967,2
-78,-130,969,2
-96,-124,970,2
60,-88,911,2
-67,7,1038,2
-119,-8,1060,2
-55,10,1095,2
37,-98,1110,2
56,-197,1036,2
36,-163,962,2
25,-181,922,2
48,-164,882,2
35,-130,869,2
53,-92,934,2
59,-56,973,2
82,-68,1008,2
48,-20,1016,2
9,-33,1077,2
-130,-80,1197,2
82,-38,1086,2
150,-158,1102,2
102,-148,1129,2
69,-46,1061,2
-31,-2,1123,2
88,-102,996,2
77,-61,956,2
-34,-5,913,2
-157,7,976,2
-65,-46,976,2
57,11,884,2
-71,-70,1020,2
-23,-113,974,2
56,-52,1053,2
106,-179,1001,2
85,-121,1016,2
21,-65,983,2
-6,-44,994,2
35,-62,994,2
35,-92,1007,2
16,-123,1024,2
0,-97,1002,2
-52,-65,1072,2
14,-106,1105,2
-6,-82,1176,2
15,5,1178,2
46,-40,1071,2
-38,-6,990,2
-16,46,923,2
-35,129,975,2
-5,128,973,2
1,33,995,2
8,34,987,2
-34,55,976,2
32,20,935,2
-34,47,956,2
17,40,1028,2
44,81,1068,2
28,98,1007,2
-64,118,1108,2
-35,97,1079,2
77,110,1181,2
35,19,1160,2
73,-12,990,2
-27,-4,1043,2
12,-8,983,2
-27,-43,1060,2
-13,25,1111,2
-7,67,1044,2
-80,40,980,2
-79,0,963,2
-24,37,970,2
-25,28,984,2
-8,-31,947,2
-117,-3,1006,2
-93,-12,1075,2
-132,17,1147,2
-43,49,1140,2
-56,0,1160,2
-13,-40,1081,2
-47,-2,1031,2
-3,-33,960,2
6,-37,892,2
-106,-17,927,2
-76,9,922,2
-99,43,956,2
-118,76,1027,2
-51,44,995,2
-113,0,1012,2
-23,20,1042,2
-2,17,1039,2
-52,-12,1089,2
-20,-23,1111,2
18,-4,1063,2
-58,-28,1081,2
-8,-10,1080,2
-8,-25,1064,2
23,-44,974,2
-69,-22,976,2
40,-71,879,2
-47,-33,918,2
-31,-40,920,2
-10,-8,964,2
-9,-8,1040,2
6,15,1092,2
-5,41,1155,2
44,-39,1111,2
56,-45,1093,2
-5,-77,1120,2
63,-69,988,2
69,-75,973,2
13,-42,950,2
40,-55,943,2
15,-3,927,2
-5,11,992,2
21,23,1020,2
65,40,1092,2
36,40,1114,2
83,-77,1104,2
93,-67,1047,2
34,-93,1043,2
23,-85,1012,2
2,-55,994,2
52,-42,990,2
27,7,1006,2
-48,12,1063,2
5,17,1039,2
32,-4,1092,2
59,-43,1053,2
32,-56,1040,2
43,-72,1036,2
50,-87,993,2
25,-90,1037,2
22,-57,1000,2
19,-67,1033,2
55,-36,974,2
17,-65,1010,2
106,-84,945,2
29,-52,969,2
-15,-48,1070,2
35,-55,1096,2
44,-76,1100,2
81,-176,1036,2
-16,-112,1004,2
77,-136,953,2
63,-105,889,2
-16,-84,940,2
44,-86,963,2
7,-8,989,2
46,-59,1062,2
57,-34,1037,2
29,-78,1039,2
49,-100,999,2
-17,-94,996,2
-16,-117,993,2
13,-55,1010,2
39,-64,1020,2
39,17,1009,2
-1,-26,1003,2
18,39,1033,2
45,-7,986,2
61,-30,1005,2
60,-54,1029,2
52,-82,1000,2
94,-58,962,2
70,-18,989,2
103,3,998,2
131,55,1025,2
146,1,1066,2
119,-13,1081,2
73,-85,1108,2
27,-100,1090,2
44,-79,1113,2
108,-133,1102,2
77,-113,1009,2
34,-112,984,2
-63,-59,907,2
-35,-63,906,2
33,-67,957,2
83,-64,1006,2
113,-58,1031,2
122,-144,988,2
5,-59,988,2
20,-80,972,2
40,-100,921,2
38,-75,992,2
82,-86,1032,2
56,-86,1064,2
29,-119,1081,2
-80,-97,1089,2
-107,-70,1073,2
67,-144,988,2
60,-126,945,2
6,-65,929,2
7,-86,922,2
13,-76,926,2
32,-78,999,2
54,-83,1000,2
17,-76,1085,2
21,-165,1086,2
36,-173,1105,2
-53,-167,1079,2
19,-157,1000,2
7,-127,952,2
-15,-111,917,2
-19,-67,948,2
-51,-84,1023,2
27,-130,1035,2
6,-108,1067,2
31,-173,1030,2
6,-118,955,2
-17,-113,996,2
-65,-81,991,2
-14,-47,1053,2
17,-4,1053,2
24,-32,1015,2
-66,-55,1048,2
-35,-26,975,2
-32,-61,1040,2
18,-78,1073,2
78,-83,976,2
5,-64,1038,2
-27,-24,955,2
-58,25,1021,2
-38,19,1044,2
19,6,1075,2
0,-105,1028,2
-4,-119,996,2
-95,-32,1056,2
-13,-30,1037,2
-1,-46,1026,2
-62,-86,1016,2
-103,-46,959,2
-11,-68,959,2
12,-72,898,2
-50,-90,941,2
-59,-70,969,2
-55,-59,1048,2
-11,-12,1097,2
-46,-13,1121,2
-8,-18,1134,2
-106,-7,1138,2
20,-86,987,2
-144,-116,1041,2
-65,-44,917,2
-139,-19,947,2
-64,-54,955,2
-78,5,934,2
-43,-24,989,2
35,-80,1003,2
-29,-53,988,2
-18,-56,1019,2
-6,-53,1018,2
-38,-3,1053,2
6,-12,1041,2
-100,9,1088,2
-100,60,1056,2
-1,-1,1098,2
16,10,1087,2
-42,-16,1057,2
-14,-32,1030,2
-72,-48,1011,2
18,-111,977,2
8,-49,944,2
-37,-55,925,2
-91,-26,920,2
-109,-37,904,2
-79,-22,988,2
-54,2,1056,2
-72,42,1207,2
56,-76,1136,2
-61,-56,1187,2
49,-86,1013,2
11,-26,923,2
18,-4,911,2
-47,4,868,2
-36,19,963,2
35,48,1003,2
49,69,1074,2
-34,-39,1100,2
-102,5,1122,2
-102,23,1151,2
48,-36,1127,2
86,-63,1064,2
-9,-26,1025,2
-123,-17,963,2
13,-15,864,2
-61,-34,889,2
-89,-37,899,2
-8,-24,909,2
0,-17,956,2
5,-12,1045,2
14,-9,1070,2
-27,-30,1117,2
-60,20,1141,2
6,12,1131,2
70,-24,1021,2
-99,-12,1054,2
-111,49,992,2
-120,29,1044,2
-22,17,1030,2
-39,42,1012,2
-21,1,886,2
-168,-18,933,2
-148,28,1036,2
-33,100,1101,2
57,55,1165,2
-40,-80,1140,2
-107,-35,1084,2
-36,4,997,2
-53,65,953,2
-78,18,954,2
-148,13,948,2
-131,4,995,2
-132,22,1058,2
-90,36,1088,2
-12,-2,1007,2
-58,10,1003,2
-66,21,969,2
-148,41,1065,2
-27,34,1070,2
-25,-12,1088,2
-44,-105,1005,2
-155,9,1011,2
-97,43,994,2
-78,64,1028,2
-26,51,1051,2
-90,-22,1047,2
-213,-13,1065,2
-90,33,1078,2
-11,-41,1043,2
-53,5,946,2
-27,-53,897,2
-53,3,880,2
-79,15,960,2
-42,44,999,2
-4,95,1114,2
24,2,1103,2
-86,-19,1095,2
-62,19,1072,2
-13,27,1092,2
-4,6,1088,2
12,0,1081,2
-102,28,1062,2
-77,-17,992,2
-74,43,963,2
-128,36,956,2
-66,28,923,2
-73,3,913,2
-71,-23,921,2
-13,-41,926,2
-43,-56,1003,2
-58,-56,1092,2
-49,16,1138,2
-65,30,1229,2
-73,28,1209,2
17,88,1118,2
-64,0,1054,2
-127,60,988,2
-101,34,927,2
-71,-31,907,2
-79,-20,896,2
-67,-22,919,2
-58,-22,973,2
-68,6,1057,2
-27,31,1091,2
-79,61,1110,2
-77,31,1052,2
-68,63,1050,2
-52,45,1014,2
-76,23,1025,2
-127,-29,1023,2
-94,-45,1017,2
-35,-18,972,2
-70,15,960,2
-100,13,983,2
-58,10,974,2
-54,-19,1042,2
-170,19,1109,2
9,-90,1072,2
72,-51,945,2
-70,0,1043,2
-106,89,973,2
-13,51,1049,2
-22,65,1132,2
-25,78,1132,2
9,-5,1013,2
-174,0,1098,2
-90,-21,1007,2
2,-74,976,2
-135,-79,1039,2
-69,-89,942,2
-126,-26,972,2
-134,-27,1004,2
-198,38,1076,2
-168,75,1102,2
-17,52,1000,2
-137,-11,1006,2
-73,5,979,2
-47,-93,954,2
39,-199,957,2
28,-95,994,2
-13,-45,1062,2
-79,-45,1070,2
-147,34,1090,2
-99,140,1109,2
-34,89,1118,2
-43,17,1060,2
-112,55,1016,2
-225,80,1042,2
-55,-61,907,2
-238,-61,990,2
-133,-40,977,2
-25,-34,955,2
-50,-45,969,2
-115,14,991,2
-50,24,1049,2
10,28,1092,2
-6,12,1122,2
-83,-8,1098,2
-30,-19,1020,2
-104,-34,1065,2
-62,31,984,2
-68,-4,1021,2
-126,-15,998,2
-97,-12,973,2
-157,8,1030,2
-79,21,1058,2
-14,1,997,2
-106,-22,1020,2
-121,-24,1023,2
-94,30,1049,2
-48,-24,1074,2
-71,1,1089,2
-73,-23,1078,2
-60,-49,1064,2
-33,-44,993,2
-72,-61,1017,2
-137,8,949,2
-202,-1,1068,2
44,25,1010,2
-71,37,1061,2
-122,-30,1016,2
-152,-18,983,2
-46,-110,964,2
-93,-76,980,2
-121,-77,1027,2
-31,-12,1045,2
-69,-5,1132,2
11,-68,1047,2
-93,-10,1089,2
40,-95,948,2
-114,-67,1055,2
-109,-39,1022,2
-12,-4,1057,2
19,-79,1030,2
-150,-10,1018,2
-93,-28,988,2
-60,-21,994,2
-57,-82,981,2
-86,0,973,2
-117,-60,1037,2
-1,-69,1010,2
-24,-110,1051,2
-76,-56,1016,2
-101,-68,1089,2
-52,-59,1101,2
46,-41,1017,2
-94,-61,1023,2
-120,-60,983,2
-65,-97,970,2
33,-135,966,2
-43,-81,1026,2
6,-96,958,2
-45,-9,987,2
-97,-41,1055,2
23,-75,1002,2
-54,-30,1105,2
-8,-92,1077,2
-1,-130,1051,2
27,-117,1005,2
40,-93,927,2
-82,-57,988,2
-41,-65,986,2
64,-31,1049,2
77,-45,1039,2
22,-108,1036,2
4,-77,1009,2
-8,-77,972,2
-10,-98,1050,2
31,-91,1041,2
61,-66,1081,2
61,-98,1014,2
-9,-84,992,2
-49,-73,966,2
5,-85,955,2
11,-102,1032,2
47,-96,1044,2
25,-94,1085,2
18,-123,1023,2
47,-128,1011,2
29,-111,986,2
29,-152,964,2
7,-119,972,2
-21,-129,1020,2
8,-148,1034,2
13,-133,1055,2
39,-135,1038,2
19,-108,1025,2
27,-145,1025,2
72,-169,1024,2
43,-152,1082,2
27,-172,1100,2
27,-159,1061,2
19,-144,999,2
0,-147,901,2
-21,-124,856,2
-82,-116,862,2
-55,-199,903,2
-16,-192,900,2
-41,-190,994,2
-70,-196,1031,2
-24,-202,1079,2
74,-178,1040,2
-21,-144,1084,2
-9,-179,1086,2
-30,-152,1014,2
-30,-180,1069,2
-18,-144,1071,2
5,-141,989,2
27,-154,991,2
-27,-149,915,2
-15,-147,876,2
-65,-111,929,2
-4,-170,939,2
54,-101,1001,2
57,-130,1072,2
65,-145,1103,2
57,-165,1081,2
29,-129,1093,2
5,-139,1084,2
23,-139,1055,2
15,-96,1037,2
-16,-124,1009,2
22,-141,954,2
-18,-116,922,2
-19,-128,933,2
-17,-127,934,2
15,-135,967,2
26,-99,1009,2
59,-133,1057,2
52,-117,1062,2
38,-161,1056,2
12,-144,1067,2
46,-215,1017,2
-26,-117,1005,2
0,-158,1012,2
-2,-73,971,2
-6,-105,1025,2
12,-85,991,2
-4,-114,1025,2
-5,-112,1014,2
3,-152,1036,2
58,-159,999,2
-13,-109,1005,2
-36,-121,1002,2
-2,-73,949,2
-21,-36,1025,2
-35,-44,1035,2
-31,9,1054,2
34,-24,1066,2
69,-67,986,2
-28,-21,1020,2
-20,-77,998,2
-5,-52,999,2
-32,-73,1056,2
5,-41,1014,2
-38,-30,1050,2
-22,-35,1021,2
-82,-8,1060,2
-21,-37,1034,2
-49,-6,1066,2
-82,-35,1044,2
-39,-48,1008,2
-29,-67,964,2
-67,-33,995,2
20,-47,952,2
-34,-60,1040,2
-42,16,1075,2
-108,157,1080,2
-127,109,1085,2
-69,-5,1014,2
-80,-42,989,2
-149,3,981,2
-182,13,1018,2
-100,22,978,2
-86,68,998,2
-117,77,980,2
-86,69,962,2
-92,86,964,2
-78,69,998,2
-134,96,1028,2
-35,106,1059,2
-48,93,1074,2
-101,84,1070,2
-122,86,1091,2
-103,99,1116,2
-89,113,1108,2
-76,77,1024,2
-174,35,1006,2
-108,22,920,2
-158,51,936,2
-177,31,928,2
-213,74,1015,2
-66,94,968,2
-132,16,1035,2
-238,0,1033,2
-112,3,968,2
-157,1,1080,2
-123,-20,1047,2
-73,-2,1031,2
-129,-26,1059,2
-127,0,996,2
-106,-10,1015,2
-163,-2,1076,2
-107,-14,1030,2
-119,-17,994,2
-95,-20,951,2
-229,17,960,2
-236,5,1032,2
-133,-39,1028,2
-148,0,1126,2
-82,23,1107,2
-143,16,1084,2
-123,47,1046,2
-93,-1,991,2
-111,-2,1001,2
-68,-39,928,2
-106,-27,969,2
-75,-68,990,2
-44,-35,1009,2
-26,-31,1008,2
-81,24,1014,2
-152,35,1034,2
-202,46,1096,2
-121,33,1145,2
-31,18,1173,2
-78,-11,1177,2
-155,-42,1104,2
-165,-43,1029,2
-106,-43,956,2
-206,-6,950,2
-66,-29,885,2
-167,2,942,2
-116,-17,925,2
-27,-42,952,2
-83,-21,980,2
-94,-54,1040,2
-120,-40,1091,2
-96,-88,1128,2
-69,-81,1109,2
-74,-96,1076,2
-89,-108,1004,2
-202,-51,1043,2
-114,-98,962,2
-141,-102,1015,2
-130,-62,973,2
-107,-37,994,2
-133,-52,1010,2
-174,-46,1030,2
-108,-75,1032,2
-118,-75,1062,2
-102,-119,1009,2
-126,-90,998,2
-212,-93,1015,2
-91,-155,961,2
-86,-71,975,2
-148,-49,974,2
-247,-17,1054,2
-128,-2,1029,2
-33,-48,1038,2
-63,-80,1009,2
-233,-24,1069,2
-104,-97,1047,2
-150,-26,1159,2
-152,-12,1177,2
-44,-32,1066,2
-251,-52,1037,2
-105,-116,884,2
-163,-36,857,2
-201,-69,859,2
-156,-97,800,2
-207,-69,871,2
-172,-17,904,2
-179,5,967,2
-191,3,1075,2
-235,68,1179,2
-30,82,1253,2
-85,-68,1256,2
-144,-72,1173,2
-73,-61,1002,2
-127,-15,894,2
-152,38,862,2
-305,115,919,2
-168,102,899,2
-190,109,978,2
-242,-52,990,2
-206,-51,983,2
-237,-12,1034,2
-268,-7,1132,2
-162,-101,1087,2
-302,-91,1175,2
-149,-51,1075,2
