AccX [mg],AccY,AccZ,Ground Truth
-546,784,-2,2
-576,761,6,2
-590,763,-55,2
-621,780,-78,2
-619,753,-118,2
-627,743,-166,2
-636,756,-200,2
-614,762,-204,2
-587,765,-219,2
-584,812,-193,2
-553,781,-191,2
-539,788,-131,2
-518,828,-152,2
-527,777,-179,2
-488,825,-129,2
-501,801,-175,2
-479,770,-188,2
-466,821,-157,2
-450,847,-133,2
-479,782,-177,2
-456,859,-165,2
-459,842,-134,2
-451,873,-113,2
-450,857,-107,2
-447,895,-84,2
-447,821,-63,2
-414,834,-114,2
-474,922,-166,2
-414,982,-174,2
-402,930,-158,2
-380,848,-110,2
-336,921,-64,2
-285,925,-102,2
-216,981,-11,2
-150,958,54,2
-117,881,98,2
-82,827,242,2
-41,781,359,2
17,774,478,2
71,909,554,2
81,965,519,2
111,1045,485,2
150,1067,500,2
142,992,473,2
139,867,451,2
298,1026,479,2
310,879,455,2
362,774,440,2
392,752,386,2
414,718,383,2
446,750,384,2
472,745,412,2
491,739,420,2
499,693,419,2
498,682,438,2
483,704,435,2
470,723,453,2
459,746,471,2
448,735,483,2
442,727,483,2
434,713,480,2
418,718,483,2
430,743,508,2
443,744,518,2
451,751,507,2
435,711,506,2
417,697,498,2
406,719,506,2
418,762,527,2
436,785,520,2
436,763,496,2
414,745,516,2
411,715,511,2
404,736,506,2
389,732,507,2
386,707,505,2
382,689,500,2
378,714,495,2
406,756,500,2
463,746,550,2
517,715,548,2
532,679,514,2
511,693,473,2
481,690,457,2
445,683,464,2
436,732,502,2
457,745,553,2
449,701,547,2
428,683,511,2
406,688,506,2
385,693,517,2
398,727,541,2
407,729,557,2
443,742,557,2
469,710,528,2
475,691,496,2
478,718,472,2
452,713,475,2
442,710,485,2
429,720,510,2
424,733,513,2
417,741,532,2
429,742,525,2
423,729,509,2
443,731,512,2
454,710,506,2
448,690,482,2
434,695,484,2
410,702,501,2
419,730,530,2
424,727,535,2
444,745,548,2
457,742,531,2
460,710,505,2
458,710,500,2
470,712,500,2
471,688,493,2
441,672,488,2
428,698,513,2
425,707,553,2
438,696,559,2
435,670,526,2
439,713,515,2
438,711,510,2
460,739,522,2
465,731,520,2
440,718,517,2
457,735,530,2
457,683,519,2
450,687,509,2
441,693,503,2
428,711,510,2
425,711,528,2
435,712,547,2
449,707,546,2
437,695,521,2
429,705,530,2
432,692,541,2
417,693,543,2
413,721,554,2
418,720,565,2
430,712,553,2
440,694,529,2
458,687,514,2
455,687,499,2
436,698,500,2
416,700,523,2
402,716,547,2
391,730,565,2
397,739,567,2
401,731,549,2
417,715,525,2
418,711,508,2
414,711,502,2
409,720,507,2
405,725,519,2
411,734,526,2
416,745,527,2
410,736,508,2
418,751,500,2
409,728,480,2
413,741,462,2
387,739,449,2
387,776,473,2
391,761,487,2
387,752,483,2
391,785,506,2
420,776,492,2
433,696,470,2
418,704,474,2
426,758,502,2
423,733,495,2
397,624,480,2
424,592,535,2
429,496,528,2
523,625,620,2
511,605,554,2
552,714,552,2
519,595,546,2
582,536,493,2
620,718,537,2
694,915,515,2
607,555,510,2
670,864,548,2
681,703,506,2
657,448,463,2
675,732,382,2
671,457,515,2
644,284,515,2
503,899,599,2
496,420,648,2
543,173,657,2
619,418,750,2
654,161,759,2
631,311,835,2
585,257,885,2
668,220,783,2
636,389,656,2
635,472,547,2
627,734,1041,2
312,334,851,2
120,226,770,2
108,209,852,2
171,73,712,2
279,243,664,2
288,470,386,2
244,847,9,2
554,1660,-250,2
530,1331,-4,2
603,476,272,2
468,878,252,2
464,1117,216,2
425,995,19,2
278,998,207,2
221,879,193,2
304,618,110,2
345,305,237,2
515,963,269,2
458,941,112,2
455,868,49,2
462,811,-90,2
473,774,-247,2
640,823,-344,2
665,833,-430,2
645,675,-442,2
556,613,-389,2
639,588,-412,2
708,664,-431,2
663,692,-425,2
569,751,-395,2
482,733,-358,2
528,664,-427,2
629,600,-500,2
729,688,-506,2
672,655,-516,2
528,677,-370,2
434,909,-287,2
432,850,-206,2
452,1032,-160,2
536,1012,-246,2
600,959,-224,2
532,936,-211,2
431,898,-227,2
352,822,-237,2
333,780,-190,2
353,803,-158,2
321,818,-83,2
308,808,-33,2
227,804,17,2
189,830,8,2
116,841,17,2
110,869,6,2
160,893,6,2
187,908,-11,2
196,894,-56,2
197,914,-43,2
213,962,-66,2
202,934,-59,2
131,899,-9,2
22,831,-12,2
-57,782,-70,2
16,761,-33,2
192,858,32,2
491,1103,216,2
929,99,614,2
96,383,-496,2
-158,654,14,2
1203,1369,301,2
-7,247,506,2
270,1019,284,2
513,842,158,2
476,693,147,2
421,947,184,2
392,812,129,2
371,892,148,2
325,939,228,2
371,891,216,2
382,917,229,2
377,907,228,2
393,857,246,2
389,891,245,2
388,895,203,2
414,922,257,2
314,912,324,2
348,921,337,2
350,844,336,2
412,826,322,2
453,761,306,2
482,723,264,2
469,752,277,2
408,809,298,2
411,789,276,2
412,832,299,2
346,840,304,2
417,893,303,2
387,804,300,2
440,801,235,2
553,793,103,2
753,726,-54,2
688,762,-45,2
648,833,-61,2
615,876,-25,2
546,888,65,2
410,825,150,2
472,838,132,2
625,838,33,2
672,822,16,2
542,904,121,2
459,896,239,2
467,763,264,2
490,746,313,2
533,719,333,2
508,711,327,2
538,720,333,2
554,718,371,2
572,669,346,2
598,760,380,2
548,817,97,2
416,1081,160,2
301,1005,159,2
283,1019,145,2
290,1048,130,2
271,920,197,2
467,630,109,2
609,758,153,2
571,883,298,2
517,639,285,2
693,634,196,2
584,665,303,2
596,617,332,2
556,637,365,2
534,658,368,2
714,823,313,2
281,511,437,2
549,873,337,2
390,697,401,2
606,784,290,2
624,640,253,2
589,785,283,2
673,716,126,2
646,671,215,2
635,738,169,2
639,730,125,2
621,714,157,2
587,740,183,2
512,837,235,2
447,904,281,2
450,894,300,2
463,883,282,2
539,859,185,2
566,762,68,2
602,760,29,2
570,768,84,2
489,841,60,2
436,917,88,2
447,879,110,2
457,890,78,2
518,816,33,2
574,788,73,2
586,766,77,2
559,807,41,2
547,827,61,2
501,815,90,2
493,794,54,2
585,752,-7,2
602,821,-54,2
613,838,-79,2
588,634,-164,2
550,617,-92,2
481,991,182,2
386,1277,92,2
431,720,122,2
544,754,42,2
611,758,35,2
667,785,55,2
669,648,59,2
659,735,115,2
608,803,115,2
575,767,100,2
610,728,109,2
618,691,135,2
650,743,154,2
617,656,139,2
616,685,159,2
576,757,190,2
563,808,160,2
572,762,161,2
570,780,176,2
564,802,207,2
621,862,188,2
555,869,37,2
275,941,117,2
603,889,74,2
330,780,338,2
642,777,274,2
433,945,389,2
539,763,231,2
499,664,-19,2
676,615,-106,2
524,744,162,2
398,940,112,2
517,1051,-4,2
523,907,38,2
272,922,27,2
341,1115,71,2
275,863,88,2
744,751,-81,2
740,749,-173,2
490,815,-121,2
450,977,-183,2
363,891,-155,2
236,1114,33,2
373,800,-121,2
494,806,-129,2
490,849,-81,2
747,628,-177,2
595,653,-32,2
691,547,67,2
648,771,134,2
328,831,116,2
533,810,229,2
371,767,68,2
929,701,89,2
599,728,-30,2
731,795,93,2
591,680,142,2
620,530,154,2
594,724,408,2
358,757,443,2
551,615,414,2
769,659,235,2
1086,393,-23,2
997,494,128,2
664,572,156,2
810,744,93,2
612,747,325,2
469,730,427,2
591,682,509,2
623,480,404,2
375,714,551,2
1050,362,207,2
545,770,503,2
995,442,184,2
832,428,188,2
969,387,186,2
774,666,366,2
889,376,163,2
682,353,412,2
608,684,470,2
601,453,489,2
798,433,432,2
1071,171,192,2
1021,267,234,2
872,358,289,2
943,348,246,2
753,295,318,2
690,396,390,2
826,237,343,2
876,123,560,2
817,198,551,2
1068,213,409,2
924,392,195,2
1067,184,71,2
868,630,280,2
904,201,201,2
865,340,576,2
774,285,405,2
750,398,464,2
954,276,266,2
978,418,265,2
956,447,290,2
905,587,161,2
830,543,157,2
849,570,261,2
746,517,178,2
830,314,220,2
760,611,269,2
943,320,226,2
813,322,202,2
894,391,225,2
891,189,8,2
831,461,232,2
943,214,73,2
791,432,197,2
728,620,440,2
907,464,393,2
691,621,460,2
719,520,451,2
675,539,426,2
705,440,409,2
770,464,338,2
853,400,376,2
920,429,304,2
680,446,476,2
709,414,381,2
737,513,408,2
692,305,478,2
877,420,475,2
618,470,566,2
776,252,574,2
574,184,394,2
671,468,533,2
731,379,472,2
909,334,451,2
906,437,455,2
937,609,452,2
744,669,584,2
920,456,501,2
824,304,577,2
757,80,513,2
757,-28,259,2
764,213,195,2
798,242,236,2
789,192,296,2
792,687,524,2
714,275,601,2
997,319,248,2
796,208,199,2
948,282,273,2
925,380,379,2
972,218,272,2
981,440,235,2
961,330,239,2
912,522,101,2
850,433,173,2
918,650,345,2
980,632,38,2
841,688,250,2
892,490,213,2
709,549,180,2
883,556,182,2
830,460,276,2
821,362,278,2
766,544,289,2
912,407,-13,2
886,177,380,2
735,445,248,2
758,325,528,2
1148,359,80,2
616,463,280,2
1002,220,255,2
901,413,139,2
1014,359,31,2
799,572,382,2
794,566,181,2
804,426,159,2
608,499,279,2
683,305,393,2
898,280,311,2
949,135,286,2
882,3,594,2
817,324,159,2
728,241,83,2
1067,110,-165,2
827,209,186,2
982,352,218,2
843,371,196,2
1029,100,189,2
844,505,358,2
661,887,639,2
963,256,238,2
794,344,559,2
622,496,384,2
1038,177,258,2
944,359,414,2
914,577,179,2
716,729,152,2
963,449,202,2
799,435,234,2
957,133,283,2
722,333,273,2
864,246,329,2
1024,464,285,2
889,318,405,2
617,286,424,2
719,369,287,2
995,255,381,2
985,270,510,2
865,474,483,2
921,277,256,2
828,214,220,2
773,472,186,2
1110,203,152,2
951,508,448,2
584,542,307,2
1019,261,335,2
1114,116,375,2
842,599,397,2
748,441,199,2
862,449,254,2
748,432,190,2
677,503,190,2
822,440,265,2
883,551,322,2
978,462,303,2
982,217,379,2
844,272,237,2
583,615,269,2
781,475,299,2
619,473,221,2
842,369,162,2
797,463,292,2
937,467,309,2
1042,380,372,2
865,345,386,2
697,308,342,2
773,163,326,2
766,356,343,2
662,313,280,2
820,439,262,2
895,540,424,2
996,227,465,2
979,181,424,2
799,155,395,2
799,116,334,2
780,137,406,2
857,163,323,2
862,618,452,2
1072,393,496,2
1132,237,439,2
1248,-17,219,2
1087,211,190,2
967,394,158,2
869,485,102,2
784,613,219,2
700,646,258,2
700,531,278,2
808,521,341,2
937,517,413,2
775,328,285,2
802,403,231,2
777,325,209,2
753,553,184,2
875,411,167,2
836,456,199,2
732,469,187,2
898,491,357,2
758,310,390,2
721,277,323,2
547,306,465,2
1213,202,388,2
1118,343,444,2
823,370,344,2
671,347,261,2
866,297,199,2
805,459,366,2
712,523,366,2
817,393,363,2
884,454,226,2
989,273,402,2
663,592,376,2
825,711,269,2
1045,91,335,2
791,277,342,2
742,381,309,2
798,333,414,2
758,274,402,2
882,387,399,2
879,382,422,2
936,415,313,2
856,416,325,2
794,395,260,2
787,533,274,2
825,500,319,2
612,691,323,2
684,716,362,2
588,720,359,2
675,659,437,2
618,624,505,2
636,522,528,2
695,440,462,2
667,297,612,2
751,234,665,2
836,132,379,2
825,304,549,2
931,213,607,2
759,452,789,2
859,-360,788,2
916,-210,589,2
1009,-1,468,2
754,-218,607,2
292,-377,-136,2
1141,-391,-419,2
1031,612,117,2
1113,-93,713,2
873,215,413,2
931,229,304,2
971,81,486,2
905,-11,448,2
832,-12,302,2
966,-82,254,2
890,-66,229,2
883,-87,308,2
921,0,142,2
933,52,271,2
1050,171,251,2
1000,120,342,2
1017,289,181,2
1042,201,319,2
907,12,384,2
948,88,322,2
917,10,324,2
965,2,338,2
885,54,472,2
929,11,393,2
970,196,296,2
821,99,376,2
847,238,435,2
874,144,411,2
924,86,267,2
824,54,290,2
922,-43,221,2
893,-174,299,2
900,-37,169,2
974,27,322,2
913,72,219,2
1099,40,376,2
874,226,470,2
782,166,292,2
914,20,484,2
938,-33,383,2
1029,65,450,2
809,73,414,2
955,-42,403,2
856,34,284,2
887,135,316,2
942,35,244,2
961,1,259,2
939,13,169,2
823,-92,288,2
970,51,207,2
1021,38,376,2
963,123,180,2
947,178,273,2
1061,165,285,2
923,52,444,2
1011,89,304,2
923,19,278,2
919,113,197,2
899,-3,332,2
1096,40,95,2
878,30,348,2
935,150,413,2
941,95,388,2
1009,192,317,2
896,220,135,2
877,16,393,2
926,45,242,2
940,-43,171,2
814,0,212,2
923,-130,359,2
981,34,264,2
964,149,119,2
986,69,269,2
978,184,240,2
965,144,360,2
979,100,357,2
950,134,349,2
896,66,301,2
1025,92,298,2
848,77,330,2
873,97,521,2
819,124,539,2
945,49,453,2
819,-47,348,2
859,126,283,2
902,-56,275,2
917,-56,196,2
931,-7,187,2
890,-11,220,2
847,-16,400,2
997,27,129,2
977,33,202,2
847,27,311,2
992,66,356,2
955,72,297,2
1067,74,267,2
918,69,389,2
900,82,388,2
984,71,309,2
1028,89,303,2
951,47,385,2
1002,4,444,2
867,12,412,2
956,69,283,2
918,61,250,2
873,158,311,2
954,107,212,2
922,38,252,2
911,38,258,2
928,132,453,2
859,55,494,2
859,58,406,2
865,96,385,2
882,-5,393,2
903,93,389,2
894,-6,355,2
916,61,458,2
909,115,332,2
899,88,316,2
927,88,322,2
895,102,363,2
936,41,450,2
936,63,366,2
907,59,390,2
867,-13,383,2
939,73,231,2
915,53,264,2
872,11,428,2
913,100,348,2
883,45,325,2
940,33,311,2
949,80,347,2
895,42,296,2
1009,94,293,2
1093,41,228,2
1042,75,285,2
910,56,336,2
918,66,365,2
884,72,369,2
846,87,401,2
839,88,435,2
845,59,475,2
926,97,461,2
1018,166,409,2
901,75,560,2
969,51,414,2
932,159,264,2
899,115,302,2
837,104,366,2
793,69,407,2
781,42,331,2
747,21,294,2
951,43,302,2
961,97,361,2
884,89,336,2
957,22,381,2
985,22,354,2
906,77,334,2
906,24,290,2
856,18,331,2
973,76,246,2
937,84,262,2
951,88,274,2
883,9,444,2
922,56,470,2
680,55,486,2
910,7,521,2
942,122,371,2
1009,10,342,2
978,121,222,2
988,36,214,2
943,104,315,2
787,-75,405,2
871,-48,276,2
888,-49,328,2
834,-14,412,2
1049,51,301,2
911,88,252,2
974,84,242,2
961,59,397,2
963,161,432,2
971,83,311,2
1025,63,233,2
978,92,365,2
912,118,350,2
991,170,274,2
944,151,304,2
852,95,498,2
966,148,448,2
900,54,481,2
852,30,444,2
894,114,268,2
893,93,302,2
887,168,289,2
899,124,350,2
873,55,345,2
782,52,353,2
1057,92,272,2
824,83,367,2
941,131,305,2
830,55,346,2
983,16,183,2
912,5,272,2
943,56,338,2
999,118,315,2
917,48,372,2
912,140,324,2
921,132,311,2
963,89,274,2
856,50,360,2
953,69,443,2
930,74,369,2
876,21,438,2
908,62,396,2
909,90,286,2
901,134,257,2
926,36,326,2
926,63,252,2
923,-7,258,2
894,-67,295,2
959,98,221,2
853,-15,270,2
1007,50,206,2
869,31,279,2
1053,116,203,2
973,191,128,2
980,36,260,2
941,66,302,2
976,-41,320,2
1056,93,229,2
965,100,301,2
967,188,369,2
985,160,333,2
998,83,387,2
879,56,441,2
891,55,386,2
840,106,433,2
909,18,376,2
948,135,239,2
793,117,343,2
1107,32,270,2
756,126,335,2
901,-81,462,2
864,70,392,2
863,-3,442,2
927,13,414,2
886,25,316,2
863,-64,356,2
834,31,401,2
907,-13,406,2
827,23,521,2
897,-62,466,2
881,45,452,2
876,10,494,2
893,52,544,2
810,-119,626,2
782,-10,548,2
705,-148,618,2
738,-153,611,2
800,-203,597,2
841,26,530,2
871,-56,534,2
899,92,555,2
879,2,466,2
851,12,466,2
785,2,523,2
900,3,466,2
736,64,539,2
880,41,417,2
958,52,425,2
798,102,452,2
756,225,658,2
814,287,681,2
843,69,789,2
804,111,587,2
983,165,434,2
862,200,382,2
534,164,383,2
854,105,560,2
1270,60,706,2
649,61,742,2
669,119,541,2
803,222,514,2
867,240,470,2
797,79,572,2
716,26,567,2
907,0,488,2
815,126,655,2
566,-75,442,2
863,136,622,2
856,126,528,2
1076,10,423,2
409,121,613,2
821,257,698,2
986,-61,610,2
833,353,610,2
436,-91,417,2
148,151,883,2
1121,302,801,2
1242,123,530,2
464,24,783,2
435,-138,913,2
420,327,932,2
409,107,826,2
858,160,499,2
661,524,579,2
732,225,677,2
674,263,913,2
664,213,875,2
463,168,792,2
631,410,682,2
495,64,646,2
344,27,931,2
963,320,771,2
794,176,725,2
586,360,1143,2
607,422,844,2
263,410,827,2
424,76,795,2
677,121,751,2
614,331,931,2
756,-17,336,2
530,134,856,2
534,58,737,2
368,122,885,2
586,162,972,2
656,168,794,2
685,102,581,2
430,12,853,2
657,191,994,2
511,37,853,2
745,-12,584,2
582,-65,821,2
769,-88,441,2
639,-108,769,2
564,-140,747,2
511,-232,869,2
735,-4,630,2
834,37,698,2
473,19,778,2
603,-110,720,2
680,41,681,2
611,-70,910,2
657,-52,697,2
623,115,694,2
774,-11,771,2
742,255,871,2
636,20,759,2
480,7,715,2
601,310,663,2
910,-92,808,2
985,127,445,2
624,152,881,2
380,17,746,2
726,269,984,2
523,197,980,2
666,176,857,2
495,83,790,2
697,221,801,2
601,65,746,2
614,204,862,2
673,162,628,2
680,67,707,2
631,180,705,2
391,44,703,2
649,-64,878,2
626,33,735,2
643,27,685,2
832,1,644,2
662,-46,612,2
726,-74,715,2
713,-156,732,2
554,-27,854,2
720,-64,684,2
795,-30,605,2
553,-44,747,2
592,8,813,2
861,-142,753,2
697,-73,579,2
623,-20,963,2
624,-14,850,2
1270,-97,970,2
890,-17,723,2
441,-13,666,2
355,20,578,2
442,79,620,2
616,-90,659,2
616,-125,776,2
628,-52,731,2
501,-132,648,2
598,78,871,2
519,99,715,2
580,-21,680,2
489,-86,596,2
541,-55,607,2
489,-139,651,2
777,-111,874,2
1181,-214,881,2
1303,-26,577,2
951,168,582,2
664,89,669,2
606,-2,622,2
676,-30,641,2
544,-160,719,2
720,-111,605,2
796,-100,622,2
881,28,679,2
908,145,549,2
804,52,629,2
662,0,658,2
619,23,661,2
716,-1,648,2
579,72,802,2
521,87,784,2
558,-48,827,2
966,114,647,2
1180,9,558,2
869,91,667,2
653,93,550,2
582,-77,501,2
747,-89,494,2
707,-171,543,2
886,-38,541,2
972,-95,582,2
917,-11,473,2
912,-92,281,2
849,-60,359,2
944,-94,396,2
828,87,631,2
922,66,596,2
845,24,619,2
858,-30,712,2
850,240,662,2
832,248,650,2
914,196,697,2
784,257,695,2
603,275,783,2
655,168,798,2
593,250,792,2
630,230,801,2
570,135,748,2
593,105,764,2
561,193,805,2
496,97,803,2
577,251,847,2
464,177,811,2
500,161,770,2
583,144,876,2
535,196,808,2
642,103,754,2
626,133,806,2
711,104,779,2
641,-7,795,2
657,67,745,2
639,16,853,2
792,71,813,2
601,20,702,2
800,-63,704,2
657,-96,613,2
610,-68,759,2
876,-165,688,2
755,-149,604,2
898,-188,693,2
826,-285,494,2
722,-272,522,2
732,-276,573,2
880,-256,488,2
614,-332,370,2
651,-45,514,2
766,50,621,2
693,-116,642,2
811,220,565,2
858,280,662,2
946,94,536,2
772,336,867,2
921,308,902,2
972,151,517,2
761,290,580,2
884,200,615,2
875,179,585,2
725,93,762,2
848,167,716,2
927,358,674,2
798,390,733,2
483,355,701,2
684,323,572,2
726,212,557,2
685,114,595,2
650,238,711,2
693,191,783,2
634,151,699,2
558,207,745,2
620,205,801,2
547,264,716,2
661,135,684,2
489,247,805,2
620,137,701,2
633,252,537,2
521,5,898,2
594,45,815,2
608,32,596,2
804,78,768,2
586,-31,666,2
652,110,891,2
524,29,672,2
645,4,598,2
729,-65,673,2
735,-109,636,2
720,-169,643,2
793,-122,596,2
752,-120,632,2
662,-28,635,2
699,-42,650,2
666,-59,713,2
754,10,798,2
683,-28,770,2
761,30,739,2
730,2,749,2
747,121,744,2
775,22,677,2
699,149,723,2
682,131,864,2
706,34,802,2
638,91,846,2
609,109,801,2
687,110,702,2
746,108,603,2
811,-1,550,2
632,-61,521,2
606,71,775,2
724,57,809,2
660,164,752,2
617,101,809,2
613,6,812,2
653,48,791,2
734,24,748,2
461,56,800,2
565,124,780,2
637,153,900,2
573,63,840,2
550,135,773,2
642,213,790,2
623,-117,487,2
636,93,811,2
670,-124,757,2
491,-107,729,2
659,-139,826,2
565,54,805,2
657,107,736,2
583,-59,679,2
758,-51,799,2
608,29,712,2
503,22,849,2
520,132,876,2
595,-136,799,2
661,62,688,2
597,60,767,2
632,-107,734,2
635,23,802,2
655,-82,675,2
621,33,670,2
642,-48,770,2
710,-168,727,2
764,-79,801,2
760,-16,787,2
639,55,798,2
626,4,752,2
634,18,798,2
687,42,750,2
799,143,648,2
713,249,706,2
587,-165,742,2
575,-238,786,2
618,488,983,2
678,-137,792,2
472,98,752,2
677,167,824,2
572,-71,827,2
517,148,937,2
370,232,830,2
525,113,834,2
640,143,650,2
576,-110,593,2
855,-70,746,2
661,-6,639,2
622,-10,698,2
630,-102,727,2
514,-42,695,2
730,-70,754,2
741,-115,621,2
638,-24,814,2
754,-202,697,2
617,-11,743,2
583,127,858,2
451,43,892,2
691,99,952,2
589,65,797,2
588,176,871,2
554,102,872,2
313,1,741,2
1293,71,1046,2
198,-51,536,2
549,321,895,2
554,-64,763,2
534,170,959,2
533,-3,772,2
434,130,857,2
625,62,782,2
789,83,1029,2
575,-165,602,2
234,178,794,2
669,103,770,2
645,-95,875,2
515,41,749,2
398,144,842,2
820,24,698,2
633,2,506,2
761,-60,956,2
838,-136,661,2
767,-249,663,2
799,-169,352,2
860,-40,805,2
825,-11,714,2
706,112,805,2
440,-291,778,2
597,-383,639,2
737,-142,521,2
717,-169,686,2
738,-60,679,2
529,-97,743,2
392,-215,655,2
388,63,1001,2
573,92,827,2
718,32,1301,2
716,513,627,2
1120,450,508,2
243,380,346,2
1007,227,459,2
555,326,181,2
749,9,665,2
657,120,674,2
859,110,548,2
747,96,659,2
724,210,709,2
835,196,454,2
795,199,392,2
750,420,541,2
766,157,691,2
650,170,741,2
708,86,677,2
673,200,599,2
781,93,815,2
837,342,725,2
718,177,791,2
731,281,556,2
645,245,597,2
748,227,623,2
667,175,572,2
722,327,732,2
603,452,661,2
977,57,365,2
513,442,904,2
782,467,825,2
627,411,513,2
646,312,564,2
555,271,511,2
838,188,459,2
640,357,538,2
758,212,565,2
719,203,600,2
690,326,732,2
655,89,840,2
708,30,689,2
665,222,695,2
738,30,651,2
731,-127,542,2
701,78,663,2
778,-60,525,2
871,55,509,2
612,16,722,2
812,-34,677,2
694,78,428,2
999,209,729,2
449,-293,617,2
903,293,630,2
646,-41,454,2
795,307,704,2
1048,154,600,2
553,135,942,2
665,107,793,2
837,214,595,2
697,177,591,2
700,-111,439,2
860,182,402,2
896,90,423,2
885,0,536,2
741,42,699,2
828,-82,692,2
938,-7,775,2
1021,268,689,2
983,324,646,2
1287,347,365,2
1278,493,263,2
1012,486,312,2
909,511,329,2
896,535,343,2
861,518,338,2
842,562,322,2
631,685,336,2
677,645,239,2
511,648,278,2
534,672,274,2
389,626,262,2
475,623,248,2
387,548,212,2
442,568,265,2
338,638,266,2
483,776,320,2
507,813,389,2
601,800,467,2
544,775,521,2
535,716,550,2
502,665,417,2
523,629,332,2
381,571,248,2
467,470,69,2
502,524,215,2
536,368,24,2
658,553,191,2
679,397,81,2
882,592,399,2
842,455,279,2
830,577,541,2
975,520,610,2
1483,359,439,2
1604,246,360,2
999,328,677,2
775,313,553,2
843,199,507,2
977,96,297,2
1095,47,190,2
1133,231,35,2
1145,417,-42,2
916,539,-76,2
691,485,-86,2
562,522,36,2
582,455,86,2
712,399,141,2
821,318,111,2
980,282,138,2
1054,294,214,2
1065,274,194,2
1193,273,139,2
1050,213,252,2
915,86,219,2
931,150,221,2
1168,172,197,2
1117,227,188,2
1046,192,103,2
1056,300,84,2
1103,326,2,2
964,371,13,2
770,338,-16,2
752,353,-27,2
743,425,-21,2
661,501,13,2
557,435,-28,2
806,392,-38,2
1197,437,-48,2
1275,654,45,2
986,551,86,2
855,431,257,2
778,369,381,2
909,233,385,2
1076,-99,246,2
1133,-115,156,2
1178,8,108,2
953,184,124,2
887,174,73,2
874,207,110,2
895,213,169,2
1019,186,97,2
1132,162,76,2
1246,175,47,2
1033,248,61,2
940,293,115,2
809,311,159,2
883,291,101,2
802,218,151,2
800,172,138,2
896,164,117,2
1078,189,112,2
1158,164,118,2
1163,209,247,2
608,159,401,2
945,80,236,2
716,44,299,2
1343,3,152,2
863,54,358,2
1051,43,169,2
1146,106,195,2
1132,66,217,2
920,90,230,2
802,50,223,2
1081,73,228,2
879,34,252,2
934,34,274,2
931,15,440,2
985,8,497,2
1132,15,483,2
1078,52,459,2
1027,143,375,2
1001,128,208,2
898,217,343,2
795,279,370,2
687,396,319,2
695,351,403,2
564,361,622,2
599,228,655,2
701,200,795,2
911,334,785,2
779,367,804,2
660,465,755,2
602,459,671,2
621,453,491,2
663,460,345,2
700,463,257,2
631,404,247,2
571,349,236,2
563,335,305,2
500,352,347,2
576,324,419,2
724,320,266,2
823,351,357,2
940,392,216,2
991,320,373,2
992,251,126,2
1070,220,471,2
1019,313,360,2
985,283,565,2
940,327,525,2
1036,302,365,2
1118,366,400,2
1176,413,349,2
1023,420,339,2
934,308,346,2
952,177,272,2
894,5,335,2
829,234,203,2
1026,180,0,2
1082,195,-28,2
1005,252,-15,2
949,264,18,2
1029,250,-14,2
1076,256,-62,2
1027,255,-63,2
973,221,-54,2
1054,223,-55,2
1050,234,-34,2
987,247,-8,2
921,240,11,2
867,203,20,2
935,182,31,2
952,158,42,2
955,153,40,2
896,150,72,2
938,139,71,2
986,133,71,2
1035,135,75,2
970,121,104,2
937,107,119,2
991,73,102,2
1097,52,70,2
1060,60,65,2
906,81,54,2
903,96,49,2
961,92,41,2
1040,136,19,2
924,173,32,2
869,208,7,2
976,224,-29,2
1079,244,-64,2
1039,273,-45,2
909,290,-5,2
843,263,31,2
942,254,50,2
1029,224,71,2
1063,209,108,2
1001,178,132,2
1013,150,134,2
964,131,166,2
1049,119,110,2
891,134,168,2
978,187,140,2
979,201,199,2
1003,148,173,2
1225,162,101,2
1002,217,177,2
862,258,125,2
922,247,73,2
860,317,84,2
865,470,23,2
823,520,109,2
799,588,179,2
1020,626,194,2
1009,692,415,2
806,650,482,2
679,596,594,2
556,667,640,2
531,552,723,2
652,584,850,2
717,473,736,2
648,179,679,2
570,5,570,2
690,-78,440,2
712,-225,438,2
703,-272,459,2
689,-100,480,2
656,70,570,2
641,384,560,2
602,678,587,2
545,647,523,2
517,761,412,2
515,886,249,2
600,842,180,2
517,863,359,2
542,634,403,2
505,593,466,2
614,754,437,2
593,589,514,2
783,638,383,2
765,1038,203,2
419,745,395,2
486,841,288,2
606,467,530,2
486,725,522,2
491,627,591,2
529,581,594,2
512,533,644,2
385,566,598,2
536,709,509,2
680,573,481,2
493,861,520,2
372,565,571,2
501,892,552,2
429,654,545,2
381,776,460,2
524,629,470,2
565,497,510,2
514,687,544,2
405,559,666,2
502,582,557,2
579,550,618,2
419,728,604,2
407,889,478,2
518,722,563,2
716,1087,529,2
1737,-303,1304,2
-1224,-218,378,2
-889,1622,-172,2
1401,297,215,2
-671,359,345,2
-293,-204,516,2
789,679,-250,2
105,262,1061,2
1727,765,483,2
25,425,71,2
-31,1696,485,2
720,277,196,2
808,376,188,2
-824,433,1633,2
716,1442,56,2
628,-197,680,2
782,83,837,2
744,62,706,2
896,424,135,2
748,728,490,2
516,586,495,2
719,837,589,2
500,692,823,2
497,916,811,2
449,601,541,2
467,899,547,2
528,454,466,2
589,650,504,2
526,630,569,2
535,640,598,2
637,516,546,2
601,415,578,2
560,570,516,2
501,679,450,2
553,414,491,2
547,625,402,2
694,555,577,2
618,451,930,2
235,310,965,2
443,753,790,2
602,597,727,2
642,153,787,2
-7,396,592,2
549,698,583,2
470,642,724,2
501,440,767,2
359,584,758,2
457,358,643,2
567,651,736,2
469,-36,575,2
340,882,883,2
925,92,806,2
-158,380,685,2
622,312,757,2
421,672,941,2
622,350,737,2
635,685,714,2
487,555,692,2
-18,564,625,2
518,1044,686,2
699,202,873,2
373,606,616,2
549,522,583,2
367,621,763,2
389,325,675,2
630,814,660,2
493,519,636,2
196,637,550,2
235,679,558,2
422,543,603,2
817,900,928,2
302,709,853,2
291,680,540,2
147,411,536,2
183,568,427,2
864,691,841,2
304,440,815,2
403,376,671,2
492,491,563,2
561,379,827,2
525,317,903,2
766,410,740,2
178,119,796,2
531,238,663,2
604,545,739,2
473,505,789,2
390,640,768,2
381,519,880,2
322,686,882,2
591,452,475,2
403,473,704,2
662,619,673,2
446,558,603,2
425,590,773,2
439,414,634,2
476,529,757,2
523,449,754,2
518,561,714,2
494,578,829,2
304,641,644,2
376,542,631,2
513,630,674,2
612,379,607,2
556,494,699,2
490,573,754,2
410,544,667,2
450,592,715,2
430,424,711,2
380,640,735,2
401,500,709,2
489,708,741,2
392,446,670,2
451,745,792,2
405,537,641,2
325,722,686,2
367,529,731,2
484,414,695,2
506,717,662,2
377,312,804,2
494,430,613,2
561,589,774,2
493,327,742,2
481,547,731,2
384,555,737,2
518,541,751,2
454,562,631,2
315,695,595,2
585,549,700,2
369,577,637,2
485,422,659,2
669,626,914,2
130,518,448,2
655,578,777,2
340,-35,855,2
538,521,666,2
564,326,683,2
504,492,682,2
480,513,708,2
351,525,832,2
439,345,944,2
418,761,600,2
375,933,855,2
315,549,651,2
458,533,499,2
468,521,772,2
571,388,666,2
574,453,661,2
584,625,644,2
455,383,653,2
453,468,737,2
474,374,812,2
494,485,775,2
412,455,729,2
499,480,768,2
344,519,717,2
473,668,690,2
506,598,759,2
489,576,719,2
268,603,710,2
395,694,660,2
458,503,736,2
390,712,693,2
478,422,676,2
487,261,558,2
675,412,670,2
412,358,871,2
489,539,735,2
477,350,749,2
455,494,809,2
506,453,775,2
482,416,595,2
507,386,604,2
566,196,884,2
440,444,779,2
429,407,746,2
358,441,722,2
409,540,595,2
577,651,892,2
703,326,885,2
369,473,647,2
549,847,903,2
340,505,607,2
272,489,610,2
771,381,657,2
557,386,720,2
320,317,699,2
678,431,623,2
583,551,688,2
387,634,861,2
404,488,865,2
308,576,777,2
292,552,728,2
231,652,711,2
171,411,562,2
767,1237,643,2
261,-333,667,2
471,1004,789,2
364,218,929,2
425,603,820,2
394,680,733,2
405,322,697,2
486,368,645,2
391,551,718,2
408,490,766,2
511,648,686,2
493,499,702,2
398,675,724,2
498,444,686,2
554,139,681,2
538,410,630,2
564,42,683,2
603,266,885,2
480,29,988,2
594,517,655,2
640,498,618,2
482,654,760,2
369,841,818,2
193,884,848,2
77,913,840,2
113,844,589,2
407,997,615,2
611,502,429,2
635,505,540,2
639,186,517,2
558,255,772,2
686,156,759,2
523,713,628,2
419,447,852,2
349,547,792,2
397,455,727,2
380,423,705,2
571,457,768,2
454,424,743,2
479,479,777,2
474,580,850,2
501,500,774,2
515,532,688,2
460,491,713,2
335,396,705,2
439,504,722,2
593,389,661,2
613,446,674,2
632,440,748,2
443,492,709,2
420,412,719,2
428,429,786,2
477,321,778,2
457,404,693,2
543,452,716,2
549,520,641,2
544,546,748,2
499,657,784,2
371,471,735,2
401,644,699,2
523,431,624,2
566,427,664,2
683,234,731,2
563,446,815,2
582,338,812,2
390,549,629,2
573,485,837,2
327,532,679,2
453,691,759,2
426,613,752,2
404,674,707,2
461,696,690,2
310,483,622,2
439,523,622,2
551,413,685,2
521,305,794,2
538,269,758,2
494,349,740,2
469,362,774,2
405,412,742,2
622,571,718,2
363,431,739,2
314,687,600,2
597,566,903,2
354,359,652,2
665,316,804,2
347,69,648,2
649,304,758,2
420,123,862,2
550,228,669,2
786,374,1116,2
489,645,686,2
406,643,613,2
480,725,982,2
431,800,756,2
348,822,805,2
415,700,543,2
439,616,659,2
623,527,542,2
618,603,635,2
301,340,707,2
443,578,636,2
503,308,599,2
438,357,839,2
448,223,901,2
383,485,856,2
341,439,830,2
326,503,674,2
461,409,839,2
396,632,743,2
399,473,697,2
318,420,745,2
609,532,701,2
534,523,660,2
425,366,740,2
394,559,688,2
366,260,722,2
503,434,987,2
230,462,794,2
398,430,737,2
404,294,766,2
566,548,743,2
600,177,785,2
630,405,715,2
549,606,588,2
549,451,697,2
416,609,981,2
222,647,986,2
352,684,710,2
582,536,749,2
632,387,668,2
661,517,678,2
488,633,724,2
375,706,667,2
379,771,609,2
417,679,669,2
439,723,689,2
250,719,564,2
346,720,699,2
441,565,657,2
484,562,672,2
395,357,553,2
562,317,666,2
535,74,724,2
770,250,855,2
441,79,803,2
428,315,766,2
519,203,780,2
539,347,796,2
620,313,860,2
446,401,809,2
280,464,751,2
420,523,816,2
447,513,781,2
499,364,780,2
531,314,627,2
552,492,682,2
623,300,762,2
664,504,859,2
499,721,835,2
250,817,793,2
369,677,629,2
467,765,588,2
686,383,747,2
511,518,679,2
471,611,646,2
445,508,659,2
424,500,609,2
436,615,755,2
471,389,716,2
436,561,752,2
380,348,770,2
513,574,715,2
488,424,732,2
417,478,816,2
400,202,731,2
360,417,728,2
583,225,871,2
452,543,847,2
464,513,717,2
453,512,731,2
597,523,632,2
425,616,768,2
336,422,665,2
445,500,671,2
465,451,863,2
555,441,671,2
557,385,717,2
418,325,695,2
462,409,806,2
434,151,732,2
467,431,824,2
522,405,793,2
475,688,722,2
291,771,821,2
389,589,747,2
446,698,776,2
376,633,651,2
375,430,520,2
618,467,609,2
634,173,724,2
554,501,729,2
527,379,829,2
464,378,771,2
390,388,799,2
422,511,701,2
466,477,785,2
444,553,778,2
355,669,678,2
370,646,687,2
457,532,752,2
494,535,711,2
499,414,713,2
452,332,699,2
495,429,731,2
548,366,804,2
572,472,684,2
523,350,713,2
468,472,731,2
428,477,783,2
396,503,720,2
536,477,747,2
560,453,694,2
466,577,694,2
393,480,712,2
419,429,747,2
465,386,782,2
445,408,778,2
531,343,706,2
525,406,575,2
624,340,759,2
523,366,865,2
527,472,793,2
419,435,774,2
477,594,738,2
516,475,707,2
513,428,721,2
605,452,766,2
525,586,735,2
425,600,710,2
345,555,618,2
531,495,683,2
462,568,791,2
477,489,714,2
431,417,617,2
489,531,760,2
555,360,808,2
500,442,707,2
457,323,764,2
413,364,748,2
417,422,816,2
464,376,728,2
528,383,814,2
651,433,797,2
495,520,746,2
487,565,665,2
409,532,730,2
436,594,763,2
437,533,737,2
420,565,660,2
487,527,609,2
549,430,753,2
475,342,713,2
509,337,766,2
449,247,791,2
444,345,743,2
519,384,746,2
474,359,736,2
513,431,795,2
546,491,814,2
414,522,795,2
407,599,729,2
576,418,677,2
532,480,718,2
442,423,746,2
499,344,674,2
594,369,743,2
485,349,789,2
534,324,757,2
431,478,796,2
305,459,664,2
593,393,796,2
502,579,807,2
610,465,793,2
435,531,788,2
374,507,719,2
497,422,725,2
486,461,798,2
520,434,736,2
347,487,597,2
557,280,744,2
595,344,857,2
654,276,661,2
543,383,705,2
596,339,781,2
434,359,744,2
375,423,629,2
482,411,786,2
682,362,896,2
432,447,759,2
473,370,686,2
498,457,764,2
522,335,765,2
528,396,773,2
546,521,724,2
417,464,768,2
414,549,673,2
571,441,813,2
466,493,759,2
581,466,710,2
466,349,687,2
546,416,721,2
522,360,721,2
421,428,683,2
606,442,814,2
424,559,806,2
434,466,718,2
461,522,725,2
414,580,710,2
383,541,674,2
413,539,743,2
463,437,737,2
517,530,752,2
493,414,732,2
420,329,712,2
551,297,755,2
479,354,757,2
567,396,828,2
498,326,721,2
556,506,724,2
607,464,744,2
462,565,731,2
348,497,660,2
457,583,770,2
446,544,779,2
535,509,684,2
471,536,612,2
616,387,648,2
542,375,754,2
466,219,774,2
515,314,788,2
495,347,777,2
429,423,747,2
522,463,721,2
498,483,694,2
581,507,740,2
489,522,799,2
485,550,642,2
479,457,652,2
526,494,711,2
537,468,728,2
498,548,794,2
418,497,729,2
492,453,618,2
503,618,733,2
488,476,698,2
430,457,650,2
460,457,664,2
495,457,670,2
468,482,778,2
468,475,785,2
533,394,710,2
588,295,754,2
460,341,717,2
471,305,742,2
505,329,784,2
515,395,797,2
662,458,740,2
667,530,783,2
501,468,629,2
641,551,720,2
513,388,809,2
497,476,659,2
501,549,758,2
584,549,758,2
496,636,662,2
490,513,546,2
613,625,623,2
540,539,788,2
368,581,628,2
423,539,595,2
464,479,751,2
433,461,648,2
521,513,678,2
559,464,704,2
577,294,680,2
560,405,772,2
501,288,713,2
481,411,679,2
473,384,796,2
405,417,773,2
487,479,778,2
461,472,754,2
565,556,736,2
525,522,723,2
507,653,671,2
445,650,722,2
375,542,687,2
495,465,609,2
518,533,662,2
532,336,718,2
496,387,710,2
535,423,806,2
515,257,742,2
635,227,683,2
493,193,630,2
578,262,762,2
536,236,856,2
441,263,752,2
506,407,901,2
465,434,848,2
434,563,760,2
451,554,629,2
542,481,686,2
592,417,641,2
545,525,729,2
500,427,782,2
523,454,759,2
517,542,799,2
568,498,734,2
607,515,684,2
569,507,686,2
482,498,630,2
509,472,693,2
462,513,699,2
579,579,726,2
533,584,678,2
507,688,641,2
411,632,654,2
446,549,654,2
528,515,600,2
506,620,690,2
492,503,696,2
497,435,604,2
487,487,667,2
515,369,700,2
514,446,706,2
483,498,714,2
432,485,688,2
513,503,754,2
444,475,704,2
541,529,718,2
546,494,713,2
452,549,704,2
403,529,677,2
408,503,714,2
466,509,648,2
493,590,758,2
495,472,715,2
499,520,674,2
548,447,775,2
520,328,651,2
538,325,692,2
471,407,786,2
488,445,812,2
440,507,821,2
390,538,681,2
519,509,753,2
521,487,690,2
484,528,684,2
409,588,714,2
470,419,717,2
484,492,694,2
475,546,756,2
509,364,750,2
515,549,713,2
487,485,805,2
458,429,662,2
493,389,723,2
427,522,745,2
409,542,750,2
399,518,773,2
405,634,753,2
489,664,726,2
400,706,652,2
429,607,604,2
380,666,747,2
508,419,591,2
501,398,599,2
614,264,756,2
614,130,777,2
559,242,837,2
520,139,812,2
541,267,741,2
557,345,769,2
506,408,796,2
489,556,878,2
413,499,766,2
541,626,767,2
539,532,718,2
508,614,677,2
460,695,686,2
444,589,753,2
459,634,688,2
407,691,661,2
509,600,657,2
495,607,638,2
497,538,670,2
539,434,603,2
566,407,656,2
488,408,689,2
486,353,732,2
520,390,771,2
490,433,717,2
567,416,764,2
511,418,692,2
526,421,717,2
390,524,804,2
468,376,728,2
484,453,709,2
517,421,741,2
552,231,638,2
565,422,594,2
324,990,722,2
362,677,689,2
416,547,656,2
446,624,590,2
450,682,692,2
515,547,695,2
542,482,605,2
640,545,646,2
530,546,629,2
520,540,643,2
445,638,662,2
536,557,627,2
519,607,590,2
558,514,642,2
594,400,646,2
642,541,693,2
585,462,683,2
534,330,586,2
563,390,657,2
572,401,711,2
600,437,681,2
598,389,717,2
602,399,703,2
640,399,719,2
627,397,673,2
638,429,611,2
511,537,657,2
581,436,658,2
596,498,673,2
631,484,690,2
646,463,669,2
656,479,623,2
575,438,688,2
538,380,594,2
600,523,634,2
571,527,720,2
526,566,661,2
524,632,660,2
566,618,602,2
531,572,560,2
617,504,598,2
531,583,609,2
548,513,636,2
419,622,572,2
514,465,610,2
605,527,627,2
553,551,673,2
604,343,711,2
587,311,673,2
558,321,684,2
532,283,715,2
525,314,725,2
520,403,734,2
532,398,769,2
589,344,737,2
543,392,660,2
621,442,669,2
598,444,718,2
537,521,685,2
462,540,658,2
550,543,651,2
585,531,686,2
585,461,689,2
625,482,635,2
609,493,662,2
546,528,640,2
513,505,687,2
529,385,594,2
537,478,611,2
577,548,680,2
546,513,645,2
621,569,641,2
642,516,588,2
608,475,609,2
647,467,621,2
618,429,643,2
439,477,557,2
401,631,749,2
493,813,527,2
510,594,689,2
482,625,564,2
528,751,576,2
540,629,567,2
582,443,515,2
595,458,594,2
536,477,704,2
508,392,698,2
575,516,706,2
545,497,677,2
533,547,580,2
508,550,721,2
531,492,631,2
563,451,579,2
691,521,633,2
593,671,713,2
466,661,672,2
399,660,573,2
512,626,662,2
532,553,579,2
586,615,606,2
597,637,654,2
500,484,610,2
435,489,690,2
447,405,690,2
518,314,665,2
553,406,772,2
518,341,794,2
514,364,770,2
487,463,725,2
436,427,646,2
642,464,791,2
527,428,752,2
463,583,683,2
435,611,647,2
525,561,705,2
570,431,713,2
486,298,588,2
685,471,781,2
523,254,732,2
495,357,730,2
518,304,753,2
532,457,692,2
596,566,754,2
443,546,682,2
500,714,723,2
436,713,675,2
447,520,484,2
510,414,252,2
479,560,480,2
430,805,738,2
445,923,805,2
499,772,617,2
608,580,417,2
668,500,463,2
602,531,593,2
598,601,623,2
524,454,581,2
572,523,575,2
592,558,589,2
542,572,668,2
496,581,605,2
423,490,605,2
600,544,656,2
650,448,663,2
479,599,581,2
421,644,458,2
548,843,593,2
490,596,530,2
668,594,552,2
681,560,592,2
525,501,574,2
553,502,591,2
630,423,538,2
730,499,681,2
456,383,738,2
430,422,681,2
583,465,673,2
539,523,638,2
690,629,662,2
417,650,621,2
381,730,560,2
482,867,520,2
491,709,546,2
546,698,525,2
547,691,651,2
400,368,543,2
516,492,627,2
552,381,665,2
590,474,714,2
588,509,638,2
630,569,622,2
542,496,643,2
517,549,543,2
689,526,575,2
519,620,644,2
491,604,572,2
531,593,663,2
530,589,602,2
617,644,579,2
544,515,628,2
476,480,538,2
501,507,647,2
515,471,540,2
638,558,620,2
643,621,656,2
584,651,633,2
479,537,556,2
537,495,656,2
630,383,684,2
514,424,619,2
497,536,644,2
475,444,713,2
598,457,638,2
665,633,690,2
485,525,627,2
494,619,628,2
466,518,556,2
527,584,607,2
518,621,684,2
609,748,615,2
455,667,607,2
467,619,498,2
571,515,626,2
483,595,625,2
455,479,661,2
517,543,677,2
529,535,537,2
583,659,526,2
659,582,635,2
591,507,571,2
480,466,614,2
528,377,670,2
467,476,699,2
490,535,662,2
557,481,675,2
492,348,647,2
554,379,628,2
678,369,761,2
544,285,665,2
555,599,603,2
677,312,935,2
502,553,606,2
655,606,596,2
391,622,547,2
686,661,619,2
410,642,609,2
466,469,525,2
837,945,369,2
776,591,1206,2
-15,512,237,2
790,682,375,2
210,374,477,2
930,948,673,2
223,529,548,2
329,727,391,2
488,565,561,2
588,751,643,2
600,618,741,2
395,502,496,2
541,171,547,2
332,470,530,2
662,41,758,2
858,1011,774,2
687,217,1018,2
93,165,278,2
847,446,616,2
347,493,718,2
581,356,687,2
410,516,703,2
623,481,530,2
408,569,667,2
698,317,545,2
1014,561,881,2
368,581,569,2
507,416,564,2
506,549,676,2
588,560,607,2
708,618,753,2
603,619,699,2
429,740,561,2
581,696,528,2
564,670,493,2
415,634,422,2
531,586,546,2
477,621,537,2
603,795,594,2
615,561,589,2
459,476,529,2
465,398,498,2
611,404,686,2
525,422,735,2
458,461,754,2
663,455,683,2
441,480,600,2
605,473,716,2
445,561,685,2
429,510,615,2
641,554,706,2
537,615,588,2
616,612,621,2
531,455,587,2
591,563,627,2
461,493,605,2
529,513,623,2
544,416,663,2
574,442,698,2
552,440,652,2
540,506,575,2
656,473,713,2
534,603,666,2
464,622,637,2
553,538,667,2
603,581,565,2
625,589,599,2
565,568,568,2
587,714,710,2
414,371,541,2
630,629,586,2
607,618,607,2
531,644,617,2
491,605,561,2
438,567,616,2
484,596,545,2
535,652,529,2
498,684,590,2
520,612,594,2
521,610,593,2
469,440,613,2
553,311,592,2
643,385,670,2
632,309,672,2
573,416,667,2
602,501,726,2
566,461,737,2
454,493,612,2
628,444,657,2
485,630,611,2
479,545,634,2
717,531,658,2
583,674,659,2
520,572,577,2
603,588,544,2
530,712,654,2
529,551,568,2
568,596,557,2
542,624,614,2
571,619,595,2
512,514,539,2
559,513,570,2
439,581,547,2
571,649,594,2
520,654,602,2
556,602,573,2
474,598,523,2
380,508,594,2
553,654,596,2
547,353,635,2
569,509,651,2
514,257,687,2
647,415,754,2
605,468,695,2
557,396,683,2
600,370,743,2
570,605,627,2
674,542,577,2
592,657,661,2
609,497,587,2
574,574,519,2
498,511,601,2
767,624,658,2
443,520,576,2
526,565,621,2
686,626,651,2
436,814,518,2
667,542,533,2
455,694,547,2
390,680,492,2
676,523,600,2
553,596,628,2
551,541,556,2
483,403,445,2
703,380,669,2
664,523,618,2
542,494,715,2
492,485,711,2
536,424,639,2
399,517,625,2
726,597,676,2
445,670,626,2
444,599,467,2
657,603,665,2
522,631,672,2
587,571,628,2
513,554,520,2
485,568,672,2
656,315,535,2
703,524,683,2
550,451,599,2
581,497,605,2
480,540,687,2
552,515,649,2
514,608,599,2
524,541,580,2
584,602,612,2
538,592,596,2
594,509,654,2
477,461,532,2
758,575,769,2
329,310,585,2
664,378,606,2
653,281,711,2
573,407,696,2
596,251,671,2
592,404,678,2
644,496,751,2
648,393,725,2
597,752,677,2
488,656,551,2
529,720,597,2
557,723,630,2
487,686,479,2
526,643,546,2
581,601,526,2
603,560,723,2
534,521,664,2
534,452,525,2
452,419,533,2
623,464,638,2
564,592,600,2
635,534,549,2
622,510,588,2
601,333,606,2
595,367,688,2
468,198,724,2
482,308,680,2
536,354,730,2
707,471,721,2
587,475,693,2
599,666,629,2
554,655,728,2
428,577,550,2
680,607,610,2
570,645,638,2
617,661,603,2
510,658,592,2
575,669,527,2
555,593,530,2
432,483,400,2
606,896,558,2
485,585,578,2
358,677,525,2
602,663,569,2
441,648,579,2
448,522,534,2
501,482,561,2
493,398,674,2
535,434,674,2
545,545,669,2
567,325,651,2
584,335,640,2
603,330,650,2
576,234,640,2
582,352,768,2
604,422,727,2
533,337,790,2
556,382,762,2
533,390,741,2
497,362,684,2
689,337,728,2
559,488,663,2
689,554,603,2
712,637,686,2
594,673,672,2
597,688,681,2
493,694,439,2
674,707,628,2
560,659,562,2
590,554,546,2
607,655,513,2
442,616,501,2
557,582,551,2
538,721,503,2
473,654,573,2
419,657,610,2
517,688,559,2
391,541,518,2
501,562,563,2
470,379,517,2
566,559,661,2
571,393,747,2
605,352,708,2
591,344,684,2
623,294,649,2
555,307,706,2
568,460,690,2
566,503,760,2
531,552,649,2
486,677,641,2
537,550,599,2
601,500,652,2
507,430,621,2
576,387,636,2
627,505,677,2
664,624,633,2
515,658,652,2
498,677,589,2
481,617,627,2
544,666,526,2
702,534,567,2
645,500,584,2
567,657,655,2
475,428,521,2
583,620,575,2
493,644,577,2
489,493,503,2
538,607,620,2
669,449,669,2
514,640,670,2
605,547,617,2
497,564,659,2
370,499,533,2
661,444,765,2
345,660,574,2
668,659,537,2
671,570,672,2
547,619,566,2
242,424,339,2
783,389,781,2
566,700,797,2
659,419,669,2
481,554,574,2
388,469,444,2
421,356,525,2
785,493,790,2
448,545,785,2
600,497,726,2
638,664,591,2
456,749,624,2
578,549,637,2
502,595,563,2
363,546,552,2
700,548,602,2
597,494,697,2
514,459,609,2
646,594,618,2
539,592,617,2
381,628,581,2
312,515,510,2
453,604,587,2
535,673,627,2
587,758,631,2
471,776,633,2
521,464,498,2
571,415,512,2
576,188,684,2
537,343,747,2
520,434,805,2
574,471,695,2
651,423,675,2
504,505,686,2
422,400,599,2
411,555,656,2
631,400,780,2
607,593,636,2
562,537,585,2
536,468,657,2
486,402,645,2
510,442,681,2
543,445,690,2
669,650,635,2
580,515,606,2
669,614,664,2
557,647,731,2
490,636,666,2
456,625,487,2
604,635,469,2
780,607,582,2
438,749,542,2
375,677,622,2
447,567,504,2
536,608,487,2
517,579,580,2
503,362,626,2
519,582,624,2
481,429,645,2
519,579,635,2
513,468,681,2
572,576,721,2
486,435,644,2
630,504,645,2
637,521,677,2
487,663,608,2
549,586,573,2
486,544,565,2
387,533,582,2
583,465,665,2
652,546,624,2
623,491,639,2
594,465,639,2
525,391,641,2
513,379,722,2
529,389,644,2
407,592,619,2
797,453,710,2
525,790,608,2
627,768,628,2
565,681,722,2
468,676,481,2
496,584,580,2
417,429,509,2
544,717,530,2
620,503,606,2
536,626,642,2
467,587,610,2
525,619,648,2
453,532,543,2
455,527,609,2
640,557,658,2
392,724,680,2
370,652,555,2
499,506,596,2
544,675,687,2
506,565,645,2
582,523,655,2
500,492,661,2
578,482,534,2
634,483,612,2
487,505,670,2
406,552,641,2
405,560,558,2
731,549,775,2
549,631,696,2
379,521,588,2
458,583,674,2
446,532,591,2
517,476,621,2
484,573,591,2
647,633,721,2
581,474,656,2
459,443,616,2
649,618,842,2
170,220,378,2
576,581,621,2
911,400,882,2
322,553,650,2
397,644,617,2
500,679,667,2
465,522,645,2
597,568,595,2
445,522,698,2
295,773,534,2
616,432,762,2
585,612,663,2
471,546,614,2
491,413,601,2
448,425,676,2
709,554,726,2
532,627,619,2
504,535,575,2
558,494,637,2
539,494,693,2
544,454,625,2
511,516,613,2
489,622,691,2
585,363,651,2
563,497,641,2
527,445,642,2
510,458,681,2
510,419,644,2
626,510,732,2
555,557,687,2
445,584,612,2
522,618,619,2
530,501,614,2
594,557,649,2
523,424,589,2
555,374,632,2
597,422,676,2
598,553,639,2
529,432,705,2
502,454,621,2
584,516,702,2
464,519,694,2
654,557,656,2
538,645,612,2
501,571,546,2
566,531,685,2
516,499,644,2
641,708,718,2
420,551,480,2
604,630,586,2
616,397,613,2
610,502,686,2
483,531,567,2
481,478,636,2
572,532,637,2
556,614,615,2
599,504,653,2
459,605,631,2
512,701,623,2
441,609,582,2
568,681,610,2
534,690,584,2
506,666,542,2
504,568,625,2
516,595,510,2
543,577,650,2
461,530,615,2
509,580,613,2
501,512,536,2
589,631,613,2
511,655,632,2
384,629,547,2
454,684,579,2
455,526,571,2
537,552,598,2
543,523,641,2
448,427,687,2
562,487,764,2
507,406,721,2
466,335,730,2
521,450,664,2
559,439,782,2
515,567,617,2
741,517,628,2
484,746,691,2
427,628,624,2
390,701,647,2
482,693,560,2
599,728,553,2
469,483,497,2
691,480,612,2
406,375,602,2
726,454,886,2
274,449,649,2
429,501,624,2
472,586,685,2
584,612,606,2
650,642,723,2
454,548,552,2
457,503,568,2
597,458,711,2
577,506,688,2
536,584,625,2
436,572,580,2
523,608,686,2
507,599,632,2
531,608,648,2
452,599,646,2
456,612,625,2
508,531,582,2
542,674,623,2
621,539,685,2
446,462,596,2
448,534,634,2
503,379,725,2
595,527,702,2
645,488,664,2
557,437,554,2
577,621,647,2
572,437,705,2
504,465,652,2
442,547,580,2
598,570,688,2
563,472,642,2
586,492,589,2
626,590,705,2
436,582,641,2
381,669,577,2
481,657,621,2
474,656,576,2
573,598,604,2
475,493,587,2
589,613,596,2
600,454,646,2
545,414,590,2
568,303,587,2
589,342,653,2
596,434,754,2
558,560,721,2
564,506,727,2
533,675,643,2
559,640,625,2
517,693,657,2
495,694,651,2
569,718,586,2
429,742,644,2
398,759,551,2
465,903,544,2
404,859,380,2
444,802,399,2
420,605,394,2
618,635,576,2
536,459,575,2
570,417,663,2
499,292,552,2
456,545,731,2
501,442,731,2
473,337,738,2
525,324,715,2
533,361,761,2
464,321,716,2
568,419,769,2
485,394,769,2
494,511,734,2
465,668,759,2
543,494,739,2
585,550,670,2
653,646,637,2
653,530,669,2
600,625,625,2
440,709,502,2
472,657,459,2
638,791,556,2
502,757,641,2
430,654,483,2
499,832,479,2
321,477,522,2
224,640,472,2
651,802,569,2
469,660,870,2
460,546,536,2
476,720,531,2
633,551,708,2
383,681,637,2
466,584,491,2
314,478,544,2
608,615,651,2
434,467,517,2
676,533,675,2
546,567,676,2
473,391,714,2
556,394,722,2
564,207,670,2
464,210,632,2
590,612,856,2
524,276,643,2
576,522,690,2
539,515,708,2
381,777,732,2
452,987,670,2
496,641,604,2
468,752,520,2
478,646,503,2
658,387,475,2
701,297,674,2
694,-46,558,2
843,-38,430,2
1293,440,236,2
1158,407,410,2
1247,239,348,2
1143,322,133,2
1100,382,-285,2
1484,371,-283,2
1944,606,-71,2
1744,1098,-91,2
1465,1022,-5,2
1319,815,38,2
1190,937,352,2
883,744,308,2
850,353,580,2
765,-10,655,2
673,-87,76,2
821,52,-292,2
912,-335,-446,2
1256,-98,-421,2
1252,-408,-357,2
1112,-496,-340,2
721,-298,-380,2
238,130,-430,2
296,594,-373,2
723,46,-115,2
1606,-321,78,2
1595,-423,-279,2
1456,-184,-491,2
1421,24,-402,2
1056,-147,-452,2
877,-182,-253,2
780,156,-48,2
396,148,-52,2
156,391,-165,2
121,150,-221,2
460,-171,-208,2
630,59,-474,2
941,276,-716,2
1512,237,-538,2
1989,-289,4,2
1421,-515,-289,2
1149,-231,-431,2
971,79,-408,2
908,19,-296,2
863,190,-328,2
783,182,-301,2
769,55,-237,2
704,-111,-275,2
677,-141,-258,2
877,53,-111,2
930,95,-81,2
933,91,-175,2
970,48,-221,2
1051,-42,-224,2
1101,11,-199,2
1062,-3,-148,2
1146,126,-19,2
1454,227,231,2
1458,5,228,2
1379,456,147,2
1262,97,230,2
969,190,338,2
408,306,208,2
133,560,-152,2
164,714,-286,2
266,1057,-243,2
228,991,-217,2
311,1031,-117,2
69,1030,-292,2
34,932,-263,2
-26,783,-312,2
-132,670,-319,2
2,578,-169,2
3,837,-330,2
-161,790,-248,2
-76,866,-268,2
-104,1275,-368,2
-218,1015,-428,2
-268,1148,-516,2
-389,1513,-360,2
-376,1338,-345,2
-421,959,-270,2
-458,813,-384,2
-392,772,-472,2
-302,149,-241,2
-112,334,-137,2
-5,437,48,2
119,838,51,2
-15,869,-186,2
32,620,-38,2
93,903,-72,2
65,1094,-86,2
-150,1429,-173,2
414,1422,699,2
474,1665,1174,2
430,1604,1060,2
315,1138,887,2
169,876,642,2
64,685,419,2
107,314,319,2
-138,83,159,2
-321,320,-13,2
-488,117,-63,2
-361,223,-166,2
-153,400,-111,2
-269,515,-63,2
-408,593,-160,2
-572,359,-194,2
-468,669,-149,2
-301,1672,-703,2
-485,1821,-662,2
-464,488,-534,2
-254,1015,-584,2
-164,1491,-551,2
-204,971,-522,2
-102,951,-301,2
4,1116,-213,2
98,968,-71,2
69,1028,-106,2
40,1152,-170,2
-14,1062,-236,2
-190,860,-424,2
-344,666,-521,2
-279,764,-567,2
-129,687,-416,2
84,854,-342,2
61,707,-373,2
14,532,-201,2
97,1108,-168,2
-166,1202,-306,2
-284,1039,-319,2
-288,973,-225,2
-289,876,-315,2
-384,793,-411,2
-374,740,-440,2
-339,715,-410,2
-287,740,-373,2
-171,788,-403,2
-115,985,-473,2
-9,929,-344,2
-10,867,-268,2
-53,853,-239,2
-67,1047,-271,2
-10,1298,-353,2
122,1549,-445,2
18,1188,-540,2
-79,762,-531,2
-22,704,-351,2
-84,497,-321,2
-216,559,-642,2
-380,742,-877,2
-417,549,-656,2
-307,581,-433,2
-105,765,-210,2
22,1082,-247,2
66,931,-364,2
130,892,-373,2
156,1021,-320,2
136,1034,-335,2
97,1060,-367,2
80,997,-329,2
55,913,-329,2
-41,865,-405,2
-148,1006,-550,2
-207,1026,-594,2
-235,991,-494,2
-228,865,-386,2
-215,847,-269,2
-179,923,-204,2
-99,854,-213,2
-180,748,-360,2
-242,933,-558,2
-336,921,-665,2
-355,851,-747,2
-272,698,-700,2
-199,909,-667,2
-35,1098,-278,2
105,1053,-50,2
56,931,-174,2
-48,750,-258,2
-245,802,-546,2
-464,860,-620,2
-465,797,-463,2
-384,828,-232,2
-285,1049,120,2
-181,1014,529,2
-385,765,429,2
-727,553,80,2
-953,796,-91,2
-673,804,204,2
-138,883,328,2
396,262,313,2
917,372,488,2
1119,-26,588,2
1489,10,907,2
1037,-581,651,2
1239,256,1033,2
684,-282,783,2
929,500,538,2
1102,-696,176,2
868,384,491,2
623,-201,429,2
805,-159,823,2
471,102,983,2
653,259,1100,2
698,-205,673,2
818,63,646,2
630,172,732,2
638,131,933,2
766,278,837,2
474,355,823,2
307,-13,1148,2
347,273,894,2
643,107,817,2
512,197,601,2
616,152,637,2
759,30,785,2
437,74,573,2
403,188,939,2
571,18,1032,2
490,264,904,2
663,134,854,2
474,216,988,2
481,228,718,2
439,302,860,2
424,75,878,2
539,21,737,2
692,-52,721,2
665,-13,763,2
654,57,714,2
589,16,803,2
578,-47,714,2
636,-241,640,2
620,-53,863,2
771,-193,591,2
186,326,1026,2
324,321,1271,2
353,638,1059,2
439,371,944,2
521,369,1025,2
379,95,729,2
576,221,716,2
526,-123,618,2
757,87,633,2
604,34,643,2
625,-25,896,2
591,69,747,2
609,-30,743,2
566,120,919,2
794,39,896,2
443,234,739,2
444,220,843,2
630,114,866,2
543,92,856,2
580,302,872,2
383,-2,846,2
571,135,764,2
820,214,594,2
763,10,805,2
699,121,736,2
493,176,820,2
743,229,933,2
390,41,884,2
595,104,925,2
456,218,847,2
470,365,913,2
484,533,946,2
327,433,940,2
359,503,913,2
514,349,728,2
378,279,866,2
363,245,738,2
423,95,825,2
576,205,812,2
583,-31,796,2
670,-13,711,2
762,27,691,2
637,-34,711,2
611,18,640,2
760,-117,769,2
474,-127,641,2
531,-38,903,2
824,-64,790,2
641,-31,726,2
358,139,941,2
484,209,935,2
668,125,731,2
572,210,831,2
485,82,855,2
407,130,915,2
585,51,735,2
544,92,853,2
399,-103,946,2
633,165,859,2
674,336,782,2
405,207,923,2
311,344,970,2
523,181,548,2
449,180,1074,2
478,55,746,2
741,-70,765,2
517,-88,721,2
427,-121,916,2
266,67,984,2
419,326,822,2
395,223,868,2
443,226,829,2
497,56,973,2
478,-40,878,2
581,105,897,2
774,-77,649,2
1057,72,664,2
740,247,616,2
493,219,949,2
934,359,858,2
-31,55,1028,2
413,403,1198,2
492,370,796,2
648,407,733,2
329,465,899,2
310,266,837,2
138,99,754,2
658,193,966,2
448,332,849,2
353,275,756,2
225,369,875,2
438,250,955,2
908,137,776,2
30,348,607,2
758,179,1053,2
127,164,700,2
613,-108,942,2
544,66,546,2
717,-116,808,2
453,-81,590,2
697,-48,813,2
328,9,757,2
467,330,819,2
518,319,1113,2
357,377,1104,2
449,345,1225,2
286,409,781,2
555,202,820,2
484,169,312,2
716,408,889,2
873,-261,762,2
-73,224,977,2
757,-58,1017,2
84,400,1028,2
358,484,972,2
287,325,738,2
340,410,922,2
96,-9,1145,2
402,556,1089,2
273,660,829,2
237,292,902,2
345,637,851,2
478,289,894,2
119,272,807,2
639,191,755,2
514,136,920,2
539,42,743,2
660,-108,879,2
486,-17,740,2
717,90,782,2
406,-91,703,2
665,-52,789,2
394,-245,703,2
739,-173,729,2
595,-194,874,2
797,60,840,2
600,2,535,2
787,-146,695,2
478,-134,731,2
691,191,816,2
552,139,754,2
875,481,894,2
320,153,709,2
455,741,1537,2
705,100,508,2
414,512,754,2
527,52,709,2
558,49,766,2
846,-75,641,2
212,251,817,2
850,21,894,2
829,285,841,2
440,410,659,2
518,136,779,2
639,195,838,2
468,127,737,2
513,-1,966,2
580,196,715,2
489,197,683,2
724,47,744,2
661,-54,731,2
596,90,956,2
417,140,875,2
566,66,843,2
715,132,747,2
693,39,774,2
606,-162,665,2
531,87,768,2
674,124,918,2
602,130,1060,2
473,188,983,2
261,306,980,2
460,150,857,2
439,192,898,2
406,123,822,2
515,25,713,2
612,-92,706,2
742,-134,742,2
681,-215,755,2
589,-67,659,2
668,-164,646,2
548,-49,846,2
578,55,930,2
627,7,600,2
547,218,977,2
616,-157,961,2
414,-36,959,2
556,-53,676,2
558,52,745,2
639,-65,618,2
614,-74,834,2
471,-75,666,2
523,83,826,2
535,115,903,2
753,120,738,2
829,31,678,2
833,-144,615,2
522,-284,654,2
716,-246,751,2
474,-134,691,2
767,261,838,2
686,0,780,2
524,277,922,2
437,357,1078,2
527,303,906,2
332,212,831,2
508,141,903,2
566,142,845,2
502,123,798,2
667,120,747,2
581,43,795,2
672,-103,641,2
725,175,750,2
516,190,824,2
485,182,934,2
559,97,783,2
499,96,819,2
474,96,909,2
466,67,723,2
562,104,731,2
628,-19,765,2
662,-171,691,2
506,-65,912,2
450,64,900,2
429,191,937,2
530,71,840,2
657,54,884,2
591,49,722,2
720,-174,662,2
455,-141,686,2
582,31,887,2
519,-122,792,2
494,-69,965,2
532,41,953,2
414,-128,932,2
458,49,1055,2
212,-176,1016,2
358,19,987,2
481,13,845,2
602,-71,867,2
508,-79,876,2
564,2,761,2
693,23,728,2
528,13,832,2
552,-56,685,2
604,89,839,2
554,-75,867,2
447,4,969,2
353,-24,967,2
349,-105,888,2
606,-65,717,2
728,-206,583,2
668,-211,632,2
550,-145,836,2
437,12,983,2
409,-85,1102,2
406,129,996,2
561,115,928,2
519,13,743,2
557,-20,861,2
528,28,878,2
464,27,845,2
646,-110,883,2
632,-227,658,2
464,29,688,2
415,461,603,2
146,7,859,2
286,141,1298,2
259,153,718,2
-2,541,908,2
286,573,1026,2
561,641,922,2
333,554,779,2
242,951,634,2
434,761,565,2
303,753,661,2
289,649,389,2
370,630,331,2
415,782,338,2
464,690,401,2
286,1095,320,2
382,886,343,2
522,784,465,2
517,541,440,2
549,537,517,2
456,518,578,2
488,617,571,2
550,542,616,2
512,597,583,2
593,501,583,2
579,565,598,2
465,581,552,2
514,667,592,2
521,767,466,2
483,815,480,2
372,729,522,2
302,807,582,2
403,818,480,2
360,840,443,2
394,814,496,2
295,614,536,2
634,739,556,2
364,411,608,2
522,506,548,2
653,547,595,2
704,521,529,2
569,607,514,2
596,653,607,2
401,544,577,2
408,641,492,2
543,734,644,2
510,754,496,2
594,707,414,2
432,746,454,2
616,537,523,2
471,782,454,2
523,698,600,2
542,595,508,2
664,599,444,2
609,536,547,2
550,405,607,2
527,409,604,2
505,584,649,2
518,654,560,2
429,746,543,2
539,920,489,2
445,879,468,2
446,930,504,2
379,745,411,2
402,822,398,2
344,777,403,2
409,730,512,2
439,585,554,2
474,562,551,2
530,631,625,2
452,412,454,2
669,645,495,2
651,704,585,2
609,488,469,2
427,413,534,2
428,646,643,2
381,756,576,2
591,752,659,2
452,536,449,2
552,556,478,2
577,573,536,2
468,681,592,2
465,695,576,2
464,752,590,2
528,669,530,2
612,587,437,2
553,530,547,2
655,576,624,2
384,530,535,2
570,764,524,2
498,670,555,2
520,722,467,2
494,714,465,2
414,790,504,2
521,839,551,2
439,888,459,2
399,807,460,2
408,605,512,2
503,715,579,2
574,627,550,2
480,613,434,2
669,622,458,2
576,561,364,2
450,640,366,2
639,771,488,2
427,703,376,2
438,832,452,2
487,772,472,2
306,616,225,2
641,826,499,2
514,776,492,2
413,685,361,2
483,934,474,2
488,652,395,2
528,715,410,2
574,775,459,2
423,602,442,2
446,827,410,2
429,736,481,2
399,846,377,2
385,769,416,2
372,752,573,2
378,848,494,2
427,604,539,2
462,618,559,2
301,624,556,2
411,831,622,2
287,577,628,2
350,736,598,2
469,664,624,2
641,554,601,2
510,628,419,2
622,513,523,2
542,672,603,2
426,531,533,2
417,653,591,2
684,444,667,2
370,754,577,2
569,633,535,2
583,519,607,2
614,460,503,2
446,415,628,2
427,557,573,2
634,618,612,2
536,654,701,2
650,618,603,2
592,552,509,2
401,457,566,2
719,826,591,2
529,600,515,2
281,823,439,2
591,1085,446,2
448,662,503,2
476,698,506,2
500,720,509,2
538,733,450,2
458,507,520,2
513,578,546,2
495,498,570,2
535,511,551,2
660,561,587,2
588,548,541,2
702,596,668,2
511,509,578,2
447,539,516,2
602,641,627,2
507,673,593,2
498,671,537,2
429,580,438,2
519,549,549,2
620,557,601,2
586,632,637,2
404,581,516,2
668,534,579,2
518,460,598,2
591,429,608,2
457,372,661,2
604,581,630,2
488,641,577,2
512,665,637,2
531,548,591,2
449,583,578,2
539,785,667,2
158,465,521,2
548,881,525,2
502,651,654,2
536,558,558,2
703,549,685,2
366,659,542,2
690,561,566,2
619,498,655,2
412,463,505,2
628,403,642,2
299,546,691,2
521,714,678,2
466,860,544,2
535,681,474,2
542,861,619,2
508,562,545,2
400,415,447,2
439,749,540,2
498,760,648,2
663,537,584,2
547,617,644,2
375,530,552,2
608,554,608,2
411,620,462,2
609,539,557,2
512,531,614,2
511,548,648,2
466,595,615,2
481,285,607,2
583,679,798,2
647,638,735,2
423,645,560,2
564,470,548,2
482,520,570,2
648,643,664,2
670,549,495,2
649,579,577,2
454,534,604,2
554,621,564,2
573,582,737,2
555,574,541,2
548,556,498,2
665,640,633,2
420,685,597,2
515,671,553,2
537,674,548,2
592,725,511,2
490,662,459,2
452,761,403,2
564,624,555,2
653,582,547,2
551,652,592,2
491,648,489,2
464,485,413,2
515,604,569,2
490,509,565,2
544,565,628,2
583,631,663,2
521,701,674,2
387,534,553,2
496,587,628,2
497,515,699,2
397,559,650,2
434,676,627,2
431,610,666,2
616,492,604,2
660,598,508,2
639,516,522,2
493,439,614,2
448,517,668,2
518,454,656,2
567,586,643,2
559,475,717,2
550,532,604,2
499,378,630,2
534,496,651,2
594,460,727,2
494,559,671,2
438,666,532,2
470,783,635,2
593,587,682,2
573,619,580,2
598,616,629,2
519,466,508,2
558,679,549,2
472,422,549,2
536,613,635,2
545,590,623,2
484,536,572,2
662,624,700,2
353,641,568,2
494,589,540,2
462,656,616,2
501,631,541,2
446,616,634,2
581,638,644,2
521,566,532,2
503,499,544,2
595,502,555,2
548,451,588,2
643,490,629,2
585,639,735,2
553,540,653,2
397,580,618,2
553,514,615,2
514,640,588,2
474,466,582,2
555,602,581,2
467,731,512,2
505,697,685,2
573,609,604,2
583,855,585,2
775,661,682,2
352,594,369,2
362,545,448,2
558,463,584,2
638,611,714,2
451,654,547,2
576,741,627,2
327,586,523,2
432,623,398,2
645,586,662,2
381,557,540,2
402,564,543,2
461,870,900,2
385,674,633,2
511,704,459,2
622,691,593,2
393,556,474,2
455,535,517,2
726,345,703,2
622,418,588,2
495,512,553,2
510,509,741,2
534,519,703,2
360,599,567,2
600,551,644,2
636,625,710,2
433,618,495,2
326,601,411,2
578,725,663,2
556,708,679,2
260,524,448,2
514,590,487,2
810,804,770,2
427,463,517,2
435,388,572,2
517,550,645,2
500,531,532,2
459,563,548,2
629,649,702,2
505,762,715,2
419,688,547,2
608,757,561,2
547,942,698,2
430,747,536,2
320,608,391,2
341,536,500,2
409,544,582,2
610,693,603,2
634,657,574,2
767,630,553,2
605,598,613,2
467,436,542,2
454,439,616,2
444,426,647,2
523,586,588,2
540,667,559,2
577,706,564,2
485,689,643,2
493,671,616,2
464,606,533,2
525,571,484,2
502,546,519,2
563,545,569,2
499,565,648,2
515,630,600,2
630,709,658,2
446,484,620,2
488,515,582,2
513,468,545,2
535,624,628,2
519,615,607,2
431,717,580,2
434,791,640,2
468,716,544,2
501,677,498,2
493,744,533,2
424,464,489,2
541,540,534,2
505,441,693,2
559,586,655,2
626,474,679,2
561,392,638,2
624,500,653,2
496,426,649,2
545,491,654,2
514,607,626,2
552,653,522,2
521,707,566,2
573,666,595,2
454,633,521,2
513,634,559,2
575,448,585,2
553,531,514,2
511,500,651,2
642,546,651,2
538,536,638,2
560,660,630,2
649,475,698,2
460,501,537,2
514,640,527,2
596,577,625,2
502,639,593,2
536,733,521,2
614,641,572,2
507,729,524,2
470,681,517,2
454,671,512,2
505,741,497,2
500,655,572,2
558,685,473,2
536,613,569,2
545,495,551,2
586,500,550,2
484,465,594,2
506,557,626,2
588,491,663,2
454,487,660,2
496,628,613,2
470,690,489,2
502,723,498,2
483,663,646,2
478,573,601,2
601,706,585,2
481,548,495,2
549,612,492,2
435,611,679,2
501,677,656,2
489,628,628,2
453,526,541,2
470,542,564,2
395,590,573,2
470,677,647,2
529,683,564,2
578,559,521,2
570,534,663,2
443,492,657,2
426,505,568,2
563,722,691,2
515,505,684,2
540,661,484,2
477,615,640,2
507,703,641,2
511,657,639,2
406,613,494,2
558,686,491,2
584,639,488,2
596,635,588,2
495,713,514,2
462,645,566,2
492,643,631,2
391,744,547,2
506,672,544,2
530,692,553,2
526,486,472,2
632,674,557,2
492,503,679,2
424,536,542,2
501,670,641,2
345,608,620,2
468,603,530,2
646,761,584,2
595,746,473,2
419,645,488,2
409,702,527,2
427,601,582,2
414,499,501,2
481,539,529,2
532,811,639,2
523,621,670,2
308,593,736,2
291,166,822,2
460,287,936,2
454,-127,979,2
590,-373,900,2
692,-168,849,2
724,-316,740,2
756,-85,464,2
695,-2,584,2
654,-157,783,2
565,31,660,2
568,-128,698,2
600,28,664,2
733,-13,698,2
727,-47,736,2
752,86,608,2
725,-9,663,2
729,23,664,2
697,69,678,2
490,-11,704,2
775,32,704,2
648,153,801,2
730,308,901,2
694,300,705,2
703,242,731,2
613,193,810,2
530,141,734,2
598,46,659,2
792,136,754,2
726,46,673,2
691,105,644,2
719,41,695,2
636,126,839,2
683,203,735,2
639,92,767,2
512,226,833,2
655,273,726,2
705,176,819,2
598,242,773,2
592,131,712,2
554,147,710,2
568,22,742,2
640,41,673,2
626,79,708,2
704,0,701,2
673,-7,723,2
628,53,755,2
747,11,814,2
676,97,768,2
492,73,702,2
468,116,677,2
849,-3,797,2
586,36,827,2
768,138,749,2
648,135,713,2
551,-15,757,2
572,-4,791,2
519,103,823,2
603,55,677,2
692,129,721,2
628,24,741,2
696,55,745,2
785,-107,707,2
638,-72,710,2
653,4,717,2
605,-79,736,2
548,33,819,2
803,41,801,2
613,174,807,2
658,244,738,2
739,62,798,2
582,38,793,2
573,55,781,2
755,-1,761,2
534,137,708,2
576,46,724,2
677,53,734,2
732,-12,748,2
475,53,723,2
608,40,748,2
602,26,782,2
546,45,794,2
826,36,828,2
689,91,816,2
630,166,724,2
524,74,714,2
575,-9,745,2
598,-55,769,2
574,26,730,2
581,-33,696,2
702,25,700,2
758,-32,863,2
767,80,787,2
616,66,692,2
641,23,711,2
544,-52,782,2
497,56,710,2
724,19,827,2
732,-7,697,2
589,42,673,2
498,217,711,2
1259,-148,945,2
332,-28,677,2
513,295,733,2
901,-62,773,2
28,241,503,2
1401,-116,1084,2
282,152,718,2
767,126,583,2
748,-54,814,2
472,59,729,2
881,-104,709,2
450,188,621,2
842,-193,777,2
645,296,768,2
712,170,810,2
570,-37,846,2
580,160,593,2
748,67,757,2
560,49,765,2
698,-46,683,2
679,47,673,2
628,0,754,2
567,-85,706,2
623,-30,738,2
765,89,727,2
584,-10,808,2
611,-20,644,2
628,-25,771,2
727,-82,764,2
621,129,789,2
688,114,714,2
607,55,710,2
644,17,747,2
626,40,745,2
614,9,779,2
510,92,594,2
1100,-156,1031,2
449,-46,608,2
721,206,676,2
503,-59,911,2
631,108,781,2
691,84,766,2
460,171,790,2
697,26,817,2
676,56,653,2
705,238,779,2
635,0,830,2
589,49,719,2
545,19,622,2
574,-55,810,2
572,-50,780,2
725,47,769,2
685,61,757,2
629,78,713,2
712,29,722,2
663,-72,786,2
601,10,825,2
605,5,672,2
644,22,747,2
735,71,683,2
689,73,766,2
694,22,734,2
587,37,761,2
709,81,857,2
500,-15,691,2
414,269,769,2
446,216,490,2
19,163,1431,2
475,-159,1350,2
626,-124,1165,2
728,-252,504,2
704,-287,282,2
611,-395,553,2
496,-287,644,2
509,-484,672,2
524,-235,917,2
580,147,1160,2
611,251,882,2
653,-22,706,2
630,-152,765,2
649,-210,873,2
682,-323,702,2
592,-251,528,2
541,-273,633,2
692,-246,672,2
775,-44,820,2
736,-109,885,2
691,-97,762,2
692,-148,800,2
602,-162,783,2
764,-116,793,2
518,-58,971,2
450,118,1043,2
500,214,952,2
538,335,855,2
764,96,731,2
615,40,712,2
603,-242,684,2
670,-155,688,2
730,-315,598,2
662,-274,647,2
581,-237,742,2
630,-98,709,2
674,-243,696,2
618,-45,655,2
692,-106,608,2
755,-87,787,2
655,20,821,2
496,119,846,2
820,46,704,2
501,-75,479,2
853,-204,836,2
637,-204,715,2
740,-90,759,2
534,-159,793,2
539,-35,747,2
694,-116,685,2
598,-119,725,2
557,-95,635,2
829,-82,754,2
761,-75,483,2
837,212,359,2
842,-62,920,2
803,316,29,2
744,225,327,2
572,172,289,2
550,33,308,2
619,209,128,2
766,319,-165,2
1334,1010,-578,2
1199,1872,-838,2
1171,1280,-840,2
1134,887,-465,2
1256,818,-163,2
1225,1413,330,2
1119,453,557,2
1142,453,-102,2
1106,607,-668,2
991,563,-571,2
897,443,-429,2
729,529,-478,2
631,707,-676,2
571,970,-679,2
504,1028,-588,2
368,521,-641,2
231,480,-713,2
238,625,-549,2
245,630,-65,2
189,209,-177,2
504,733,-126,2
515,545,42,2
1147,438,-233,2
563,-837,817,2
1139,1158,926,2
1095,897,996,2
203,861,861,2
345,774,375,2
263,383,326,2
551,877,-28,2
1117,329,-443,2
62,410,534,2
964,1323,895,2
282,49,574,2
471,752,573,2
917,793,616,2
740,616,648,2
388,629,568,2
247,812,310,2
633,438,340,2
818,597,675,2
597,757,415,2
527,424,720,2
314,577,496,2
631,614,341,2
722,369,806,2
671,590,547,2
511,397,566,2
619,506,527,2
527,644,593,2
493,833,549,2
488,766,557,2
455,684,527,2
617,556,502,2
738,588,518,2
580,479,503,2
577,431,561,2
578,414,684,2
575,439,660,2
520,493,670,2
510,450,645,2
638,519,645,2
498,613,660,2
584,458,567,2
619,511,577,2
528,605,606,2
587,484,588,2
555,534,600,2
500,459,568,2
688,477,692,2
626,465,627,2
519,560,500,2
610,591,655,2
636,476,678,2
502,561,554,2
544,579,574,2
631,437,677,2
568,522,523,2
596,568,606,2
570,428,559,2
667,512,697,2
695,560,704,2
263,369,480,2
758,677,562,2
658,497,761,2
617,531,551,2
564,616,556,2
542,483,610,2
423,554,441,2
559,618,589,2
669,532,553,2
619,662,585,2
347,695,621,2
807,360,518,2
795,675,711,2
510,599,542,2
455,451,492,2
500,490,527,2
586,558,625,2
605,511,623,2
518,574,480,2
639,549,627,2
588,741,560,2
657,532,580,2
443,567,544,2
590,532,510,2
520,503,581,2
547,499,581,2
636,501,637,2
609,468,627,2
558,582,625,2
609,424,573,2
678,451,582,2
626,411,608,2
569,571,573,2
548,417,633,2
630,454,557,2
713,538,643,2
636,575,661,2
630,586,623,2
452,709,591,2
540,613,553,2
575,672,524,2
560,720,500,2
553,539,436,2
638,624,486,2
631,509,553,2
755,391,582,2
585,316,542,2
685,444,539,2
739,645,720,2
357,594,578,2
459,638,485,2
606,694,611,2
490,745,565,2
561,621,455,2
531,670,409,2
656,678,447,2
482,617,599,2
486,951,664,2
483,370,343,2
550,740,542,2
419,567,612,2
587,534,439,2
635,464,586,2
502,651,622,2
483,641,646,2
537,556,577,2
683,661,498,2
548,460,650,2
441,583,567,2
443,563,507,2
513,667,547,2
601,543,647,2
577,704,569,2
586,653,570,2
455,596,509,2
527,548,543,2
562,626,535,2
545,570,572,2
550,432,544,2
601,677,581,2
568,629,638,2
545,676,559,2
574,655,601,2
504,632,557,2
477,573,548,2
584,552,555,2
565,439,516,2
644,482,548,2
599,526,606,2
512,554,595,2
585,663,722,2
451,514,646,2
500,503,546,2
507,534,629,2
599,654,722,2
522,481,635,2
544,613,516,2
672,450,636,2
651,615,661,2
599,661,614,2
471,689,576,2
517,606,534,2
604,586,559,2
672,499,616,2
561,563,500,2
454,620,520,2
497,629,535,2
629,568,610,2
549,625,575,2
426,603,566,2
648,541,611,2
552,611,625,2
546,529,585,2
466,479,506,2
390,618,517,2
701,397,670,2
597,533,723,2
705,575,712,2
362,508,562,2
585,495,572,2
525,516,643,2
524,627,650,2
530,533,633,2
357,573,491,2
560,553,694,2
615,641,737,2
566,612,612,2
586,493,558,2
414,487,592,2
593,548,635,2
527,477,667,2
563,706,537,2
607,622,588,2
454,427,528,2
617,623,700,2
574,448,651,2
535,470,578,2
464,520,539,2
561,556,665,2
595,472,693,2
485,566,603,2
632,517,646,2
461,572,709,2
507,567,536,2
419,473,604,2
778,478,738,2
593,544,679,2
527,447,670,2
457,463,576,2
631,541,629,2
511,557,633,2
544,566,612,2
494,513,604,2
532,511,679,2
682,651,705,2
480,617,590,2
497,552,666,2
465,508,525,2
508,681,559,2
565,529,654,2
730,568,629,2
426,776,550,2
477,503,508,2
599,546,614,2
465,612,652,2
700,228,613,2
593,516,650,2
399,477,511,2
736,640,800,2
479,531,533,2
481,461,612,2
580,523,653,2
531,598,600,2
404,562,656,2
615,317,616,2
546,602,674,2
532,501,733,2
585,419,623,2
583,478,610,2
499,360,659,2
538,585,625,2
470,467,613,2
647,516,742,2
650,614,683,2
614,739,676,2
410,577,619,2
498,582,443,2
551,650,609,2
519,705,671,2
679,693,571,2
448,751,599,2
561,443,554,2
568,586,513,2
545,518,559,2
537,536,587,2
461,588,481,2
602,433,632,2
731,616,669,2
343,655,632,2
522,443,585,2
486,527,548,2
375,681,577,2
691,499,608,2
479,577,649,2
686,551,714,2
389,517,650,2
626,365,527,2
420,468,689,2
661,421,650,2
431,355,632,2
654,322,676,2
181,401,479,2
840,370,668,2
915,787,1051,2
617,682,729,2
540,558,592,2
379,627,685,2
362,495,472,2
601,661,517,2
385,534,517,2
572,539,225,2
1154,682,1421,2
336,678,503,2
587,550,148,2
967,451,1011,2
217,692,518,2
372,809,389,2
455,706,529,2
353,664,432,2
759,804,374,2
446,631,626,2
640,546,688,2
418,581,417,2
593,389,590,2
522,443,543,2
533,318,632,2
305,19,586,2
292,255,602,2
1570,393,1292,2
441,626,883,2
263,385,554,2
600,355,518,2
592,296,624,2
727,614,750,2
337,829,654,2
288,874,613,2
615,414,606,2
960,862,852,2
654,667,703,2
336,414,259,2
337,427,865,2
323,612,788,2
784,476,407,2
616,718,526,2
563,577,699,2
400,627,659,2
382,490,620,2
431,561,348,2
686,525,519,2
544,642,703,2
525,473,634,2
550,664,654,2
470,346,699,2
484,394,643,2
608,345,656,2
605,429,703,2
675,373,668,2
523,404,661,2
591,413,704,2
605,609,630,2
519,705,718,2
498,625,630,2
553,609,631,2
529,665,670,2
427,687,566,2
624,639,634,2
461,573,559,2
625,533,601,2
625,591,634,2
487,629,575,2
564,497,512,2
524,538,544,2
505,563,630,2
577,531,630,2
367,664,536,2
595,721,536,2
418,637,688,2
536,399,447,2
610,691,614,2
330,341,592,2
609,422,575,2
608,441,773,2
710,495,850,2
427,397,653,2
536,403,540,2
584,416,676,2
592,421,663,2
511,601,645,2
612,618,697,2
546,708,630,2
538,568,644,2
605,624,664,2
404,608,648,2
545,517,583,2
485,420,598,2
636,546,607,2
668,605,605,2
638,585,691,2
576,490,616,2
486,560,548,2
647,546,647,2
494,569,513,2
542,634,595,2
523,751,606,2
526,713,498,2
516,688,558,2
483,495,455,2
550,616,568,2
566,499,615,2
603,612,649,2
210,352,494,2
831,448,642,2
565,628,818,2
455,503,628,2
546,406,605,2
502,508,614,2
580,501,642,2
518,497,618,2
442,754,721,2
384,454,586,2
462,580,604,2
581,542,739,2
623,510,718,2
468,350,586,2
582,339,668,2
559,499,759,2
515,537,643,2
527,649,635,2
502,541,639,2
499,555,642,2
470,513,640,2
503,606,626,2
453,476,468,2
573,634,686,2
707,616,730,2
453,694,604,2
399,498,594,2
488,469,619,2
640,589,649,2
531,617,653,2
605,540,608,2
499,532,614,2
638,630,608,2
532,532,550,2
480,811,616,2
427,591,596,2
430,663,631,2
594,667,620,2
605,704,599,2
472,506,535,2
497,529,581,2
508,608,645,2
555,614,592,2
461,729,567,2
491,589,556,2
596,616,570,2
486,525,532,2
437,554,553,2
647,409,550,2
508,487,537,2
709,427,747,2
387,571,739,2
477,348,653,2
527,410,662,2
527,470,613,2
591,422,650,2
568,523,772,2
650,501,711,2
633,574,705,2
484,455,570,2
587,519,565,2
570,604,669,2
628,601,684,2
577,771,664,2
447,704,612,2
393,650,517,2
599,617,594,2
505,742,580,2
474,654,514,2
526,518,470,2
558,650,681,2
638,572,640,2
487,479,442,2
465,413,561,2
528,503,551,2
609,552,592,2
543,700,686,2
378,524,599,2
557,548,611,2
530,588,705,2
425,527,585,2
574,556,620,2
475,402,636,2
624,493,671,2
456,428,705,2
564,504,625,2
527,360,629,2
733,463,697,2
594,524,672,2
445,536,610,2
429,570,698,2
480,640,778,2
574,709,664,2
540,647,492,2
573,459,625,2
555,577,588,2
554,618,647,2
664,537,537,2
486,564,683,2
523,591,489,2
545,439,595,2
607,638,593,2
405,513,709,2
551,532,400,2
753,576,786,2
422,582,481,2
473,671,689,2
526,601,653,2
621,489,568,2
271,374,503,2
729,816,599,2
509,286,742,2
430,451,458,2
706,592,616,2
777,778,808,2
384,460,562,2
589,599,641,2
32,863,540,2
809,326,575,2
567,815,803,2
422,675,578,2
569,401,536,2
573,457,674,2
412,485,572,2
693,615,613,2
458,545,644,2
405,620,523,2
589,306,564,2
488,550,842,2
605,606,602,2
473,630,647,2
464,528,607,2
505,567,589,2
514,662,681,2
526,408,471,2
536,444,765,2
519,442,746,2
603,569,603,2
538,631,629,2
508,454,546,2
564,561,579,2
507,661,729,2
474,666,511,2
501,672,634,2
563,606,660,2
469,603,566,2
505,458,512,2
587,441,790,2
593,511,620,2
665,607,632,2
529,478,559,2
480,370,616,2
528,454,711,2
522,375,637,2
632,681,560,2
577,560,684,2
561,720,673,2
496,678,653,2
452,432,537,2
641,529,599,2
635,601,679,2
628,651,604,2
503,609,672,2
434,546,610,2
591,549,445,2
580,724,593,2
413,774,542,2
504,643,520,2
509,836,702,2
380,670,576,2
462,707,337,2
380,525,556,2
639,644,522,2
524,580,546,2
563,454,672,2
456,317,510,2
660,305,697,2
520,406,659,2
520,436,691,2
497,411,761,2
540,444,717,2
481,346,651,2
591,469,650,2
641,346,696,2
712,516,728,2
541,608,714,2
540,681,707,2
565,637,648,2
705,602,653,2
485,757,533,2
638,547,587,2
617,796,628,2
484,634,447,2
529,589,310,2
547,633,611,2
579,585,651,2
472,610,531,2
472,633,585,2
452,492,580,2
578,491,612,2
545,585,586,2
562,610,590,2
507,515,601,2
502,519,652,2
476,459,563,2
547,570,607,2
579,355,635,2
491,606,633,2
497,532,645,2
453,477,665,2
479,493,517,2
451,380,627,2
722,567,806,2
413,512,687,2
539,445,585,2
577,535,705,2
542,349,786,2
527,558,729,2
689,492,593,2
541,596,745,2
491,627,602,2
764,523,614,2
457,806,639,2
618,635,622,2
519,704,666,2
503,676,661,2
545,490,408,2
555,587,606,2
589,670,560,2
675,765,686,2
362,671,465,2
488,598,291,2
630,570,634,2
504,742,497,2
523,677,464,2
486,545,547,2
499,717,512,2
534,485,537,2
511,553,569,2
472,404,581,2
532,444,813,2
533,386,684,2
560,364,610,2
619,282,670,2
701,486,725,2
522,492,680,2
467,418,671,2
573,588,686,2
416,540,646,2
591,686,616,2
573,547,676,2
588,659,716,2
470,592,697,2
482,508,531,2
582,613,607,2
580,663,704,2
500,795,517,2
555,708,613,2
490,650,526,2
472,486,460,2
616,459,566,2
586,398,559,2
591,571,607,2
506,533,677,2
525,519,608,2
409,527,667,2
561,426,624,2
581,603,723,2
571,452,673,2
573,417,672,2
524,453,662,2
560,307,561,2
687,463,745,2
668,526,671,2
580,573,630,2
553,596,672,2
484,656,643,2
649,640,670,2
479,759,676,2
499,654,554,2
435,654,589,2
422,596,422,2
676,519,568,2
649,486,839,2
527,550,451,2
543,408,572,2
454,488,624,2
502,424,601,2
622,494,701,2
505,474,547,2
575,668,653,2
932,575,1009,2
284,569,668,2
279,275,299,2
397,244,547,2
472,360,568,2
1040,407,1036,2
327,731,750,2
642,133,549,2
691,389,682,2
930,756,762,2
381,603,627,2
8,505,241,2
1236,680,846,2
-792,944,759,2
683,546,59,2
862,796,681,2
799,610,931,2
118,841,616,2
-60,370,-92,2
1037,309,438,2
-110,551,600,2
1455,874,1083,2
331,650,686,2
603,410,169,2
330,391,642,2
510,500,756,2
340,105,397,2
194,468,614,2
1071,303,562,2
445,570,840,2
733,677,983,2
517,366,849,2
69,243,199,2
1049,101,762,2
305,768,695,2
491,333,814,2
596,383,700,2
701,658,686,2
847,627,761,2
381,817,660,2
478,404,542,2
526,591,677,2
584,644,753,2
493,705,699,2
565,681,582,2
571,655,642,2
453,597,602,2
642,587,509,2
527,491,528,2
458,582,432,2
709,518,654,2
313,502,668,2
505,574,441,2
596,387,710,2
504,627,638,2
539,536,653,2
394,550,613,2
586,493,557,2
527,508,700,2
574,490,667,2
564,446,688,2
578,413,667,2
502,353,695,2
560,374,626,2
658,500,717,2
509,709,735,2
505,597,683,2
455,708,711,2
430,517,624,2
620,696,593,2
449,549,717,2
541,561,574,2
484,532,634,2
518,456,645,2
663,539,643,2
553,498,692,2
577,472,545,2
441,514,692,2
434,530,591,2
509,478,515,2
714,620,797,2
514,523,605,2
585,619,575,2
376,532,648,2
516,422,569,2
620,543,806,2
610,442,607,2
588,495,683,2
499,412,718,2
480,596,573,2
533,493,644,2
593,796,652,2
383,586,530,2
535,625,667,2
498,655,615,2
451,496,601,2
517,348,680,2
478,481,745,2
512,464,831,2
534,364,542,2
600,418,661,2
612,381,561,2
705,418,938,2
467,483,584,2
707,480,553,2
405,561,859,2
563,670,575,2
590,582,719,2
579,781,541,2
447,786,597,2
311,693,534,2
532,554,538,2
641,439,542,2
648,330,682,2
577,460,768,2
544,394,629,2
407,483,620,2
509,534,579,2
517,637,684,2
494,724,784,2
395,659,666,2
455,724,563,2
431,514,672,2
551,527,720,2
449,401,602,2
515,444,612,2
555,505,718,2
504,430,618,2
677,448,658,2
646,562,667,2
406,651,641,2
404,471,579,2
635,543,776,2
443,505,627,2
438,491,637,2
622,382,561,2
498,658,718,2
568,385,802,2
259,424,582,2
911,371,732,2
533,553,843,2
543,480,648,2
343,724,486,2
641,666,652,2
368,718,590,2
636,693,865,2
257,734,514,2
661,653,422,2
358,322,841,2
548,363,738,2
516,545,649,2
436,476,707,2
632,482,697,2
755,788,744,2
208,584,390,2
565,683,431,2
372,263,492,2
650,676,692,2
701,472,901,2
266,535,383,2
810,323,754,2
489,702,796,2
483,481,635,2
168,540,515,2
726,308,470,2
774,471,878,2
521,547,823,2
555,488,666,2
569,512,770,2
491,514,650,2
511,586,680,2
390,510,670,2
464,763,625,2
569,602,843,2
471,899,646,2
599,550,713,2
534,790,574,2
448,281,559,2
326,479,267,2
852,341,711,2
380,571,749,2
814,499,630,2
690,652,838,2
214,488,608,2
287,447,397,2
559,491,649,2
494,528,629,2
645,565,679,2
535,465,693,2
707,360,778,2
637,482,827,2
386,423,552,2
645,290,664,2
507,566,700,2
531,707,658,2
430,620,656,2
729,872,793,2
422,752,688,2
326,528,555,2
506,613,544,2
394,470,642,2
560,560,729,2
414,558,629,2
613,563,660,2
773,638,697,2
447,494,584,2
504,533,439,2
535,217,660,2
525,662,562,2
345,51,591,2
536,613,697,2
538,418,856,2
591,629,637,2
522,510,832,2
483,608,462,2
472,577,634,2
621,402,525,2
690,478,787,2
476,717,722,2
513,566,580,2
505,649,587,2
492,638,678,2
380,598,559,2
398,715,564,2
524,440,799,2
428,745,672,2
292,518,628,2
636,465,622,2
580,600,762,2
543,398,560,2
533,496,494,2
564,473,586,2
586,403,687,2
524,637,734,2
508,356,659,2
643,461,727,2
372,543,717,2
484,661,677,2
459,513,698,2
446,428,572,2
492,557,609,2
630,602,728,2
612,425,634,2
633,475,670,2
533,477,743,2
483,374,658,2
527,609,613,2
515,477,694,2
444,646,642,2
448,797,599,2
511,531,739,2
470,859,598,2
392,614,587,2
306,490,532,2
459,523,460,2
590,384,937,2
540,523,772,2
720,386,504,2
790,401,621,2
539,580,802,2
294,541,612,2
375,411,625,2
517,651,608,2
466,405,669,2
535,468,597,2
684,587,686,2
581,531,638,2
654,536,744,2
400,586,733,2
397,522,483,2
633,435,614,2
457,772,613,2
660,474,709,2
488,426,662,2
590,584,715,2
459,435,639,2
537,638,515,2
429,464,614,2
521,585,597,2
502,574,657,2
489,693,751,2
509,613,627,2
501,597,672,2
492,568,669,2
498,520,587,2
570,406,745,2
550,558,732,2
489,525,610,2
622,485,592,2
501,450,619,2
539,555,522,2
837,526,748,2
428,587,657,2
491,532,515,2
521,700,713,2
413,640,567,2
584,581,604,2
466,603,520,2
537,615,620,2
540,541,626,2
457,460,500,2
779,381,680,2
641,237,696,2
438,175,698,2
469,367,737,2
645,372,704,2
679,649,745,2
402,433,718,2
472,705,613,2
553,602,755,2
516,793,775,2
429,793,671,2
449,645,586,2
348,644,509,2
638,463,650,2
683,687,698,2
496,537,604,2
576,583,464,2
546,623,572,2
509,494,620,2
437,523,566,2
561,622,592,2
503,404,584,2
639,503,754,2
449,208,640,2
465,376,660,2
516,254,748,2
597,342,718,2
674,391,736,2
536,502,767,2
497,521,591,2
759,191,854,2
423,542,676,2
519,491,649,2
687,584,714,2
550,751,689,2
462,623,578,2
458,871,664,2
518,529,659,2
616,616,578,2
365,528,604,2
550,560,654,2
326,500,661,2
704,384,755,2
422,589,671,2
579,555,628,2
585,436,697,2
518,623,643,2
495,559,501,2
536,504,594,2
447,412,685,2
599,505,564,2
618,496,832,2
566,504,690,2
411,415,569,2
482,415,743,2
508,574,635,2
592,580,717,2
419,700,652,2
480,607,579,2
630,568,657,2
568,430,567,2
535,459,601,2
553,276,704,2
517,487,671,2
540,467,678,2
499,543,754,2
393,581,668,2
622,631,697,2
401,517,673,2
480,585,671,2
434,575,679,2
498,576,732,2
519,520,658,2
516,428,578,2
503,333,708,2
622,456,652,2
657,464,709,2
629,503,617,2
546,624,682,2
509,512,706,2
517,513,740,2
493,622,666,2
507,637,533,2
504,518,449,2
547,498,611,2
535,324,729,2
621,507,654,2
589,521,622,2
632,616,749,2
566,464,689,2
573,596,628,2
290,380,614,2
561,484,542,2
688,271,835,2
548,572,717,2
457,518,592,2
532,653,682,2
476,629,790,2
449,638,579,2
373,662,641,2
384,554,611,2
793,593,736,2
257,677,621,2
542,461,639,2
343,354,685,2
609,469,579,2
579,498,779,2
511,486,672,2
561,654,499,2
603,459,679,2
604,495,624,2
439,520,579,2
536,554,721,2
383,531,428,2
708,428,732,2
600,270,730,2
611,296,721,2
477,251,671,2
577,316,663,2
551,382,727,2
555,557,815,2
508,698,731,2
590,447,720,2
624,556,689,2
578,361,748,2
495,495,572,2
662,638,613,2
496,516,760,2
470,839,669,2
448,755,670,2
260,718,654,2
413,734,532,2
453,806,630,2
186,778,606,2
254,831,605,2
299,681,576,2
331,625,526,2
527,494,491,2
522,559,548,2
458,484,765,2
489,456,637,2
630,402,586,2
664,336,717,2
502,155,881,2
400,61,846,2
593,79,838,2
420,44,646,2
537,378,956,2
269,430,755,2
207,518,518,2
1045,832,1313,2
102,1135,530,2
397,1009,654,2
349,984,440,2
535,725,588,2
673,642,769,2
427,146,586,2
401,571,416,2
588,261,565,2
548,511,745,2
357,604,778,2
227,471,909,2
152,503,558,2
876,801,829,2
472,674,610,2
-127,551,589,2
407,639,848,2
259,658,706,2
386,631,810,2
431,491,572,2
355,522,505,2
818,515,906,2
379,741,676,2
354,587,562,2
494,696,723,2
78,413,420,2
639,580,761,2
494,415,758,2
439,198,401,2
320,244,561,2
1198,537,1313,2
615,553,1051,2
-73,663,493,2
-357,858,60,2
860,719,892,2
567,899,945,2
237,881,892,2
1310,819,632,2
60,571,316,2
447,600,583,2
341,530,387,2
362,552,453,2
491,1201,1021,2
-7,-551,377,2
730,1586,707,2
136,-165,885,2
142,546,773,2
218,448,543,2
86,206,405,2
643,344,322,2
1001,778,1199,2
1253,470,1298,2
-662,293,747,2
386,967,-375,2
974,49,1144,2
-285,364,556,2
742,988,884,2
-44,912,740,2
778,-303,743,2
755,953,194,2
556,536,1000,2
586,1010,684,2
695,771,736,2
-369,713,1082,2
-1234,1261,235,2
1051,890,320,2
860,332,814,2
214,790,911,2
1149,362,607,2
-44,195,229,2
689,880,503,2
493,-33,813,2
-178,983,886,2
193,558,519,2
691,538,546,2
499,574,593,2
659,528,844,2
53,970,948,2
58,513,801,2
565,643,414,2
379,478,692,2
406,528,747,2
377,734,478,2
758,691,624,2
467,529,614,2
569,878,922,2
359,359,721,2
547,657,638,2
38,570,313,2
639,381,557,2
528,486,793,2
552,503,728,2
303,569,710,2
515,630,656,2
408,620,827,2
392,609,705,2
619,521,687,2
450,549,644,2
382,521,602,2
494,573,683,2
336,408,598,2
541,941,646,2
601,799,729,2
271,184,709,2
280,923,636,2
362,482,723,2
338,662,652,2
226,205,611,2
958,1159,725,2
65,-136,953,2
382,933,644,2
494,513,791,2
377,706,584,2
393,588,579,2
465,611,513,2
328,749,559,2
633,539,678,2
503,281,732,2
191,18,525,2
1040,454,1180,2
-52,166,237,2
1284,240,1328,2
-116,566,571,2
722,651,793,2
310,784,613,2
419,676,1011,2
664,540,366,2
703,352,1060,2
514,344,596,2
726,458,738,2
282,521,610,2
526,906,587,2
303,687,782,2
270,937,681,2
269,1048,559,2
252,777,390,2
374,632,438,2
470,675,420,2
506,424,685,2
352,444,645,2
648,372,707,2
438,253,797,2
606,358,742,2
450,358,663,2
499,226,770,2
638,360,754,2
483,442,884,2
360,443,769,2
376,556,739,2
489,392,766,2
545,457,688,2
472,404,747,2
651,618,703,2
540,707,683,2
468,878,739,2
442,773,718,2
423,636,618,2
599,584,600,2
525,398,671,2
419,603,556,2
404,575,609,2
533,539,699,2
427,753,606,2
385,593,727,2
453,761,633,2
444,490,639,2
416,683,651,2
312,395,617,2
317,418,715,2
442,406,790,2
516,564,783,2
619,557,663,2
487,450,601,2
494,520,605,2
477,407,724,2
445,524,582,2
546,396,712,2
574,457,819,2
376,180,609,2
613,309,829,2
551,298,721,2
422,234,802,2
646,470,719,2
534,715,852,2
426,892,644,2
424,916,715,2
387,873,526,2
705,815,762,2
225,519,593,2
638,567,310,2
543,405,590,2
395,516,630,2
584,537,648,2
322,299,767,2
344,414,792,2
639,686,915,2
351,521,660,2
418,678,648,2
281,519,802,2
511,662,750,2
416,632,742,2
509,643,448,2
515,659,502,2
508,661,598,2
415,374,524,2
607,427,750,2
421,264,655,2
718,423,729,2
445,208,909,2
507,218,407,2
549,351,985,2
426,469,720,2
622,534,816,2
390,759,696,2
434,1085,757,2
468,729,780,2
468,674,496,2
482,595,661,2
598,403,440,2
597,634,707,2
400,359,587,2
408,621,650,2
543,657,672,2
343,527,611,2
531,627,717,2
424,388,718,2
588,538,684,2
383,134,642,2
472,343,807,2
504,294,971,2
547,277,810,2
526,395,706,2
620,591,638,2
667,529,729,2
368,567,619,2
589,631,656,2
417,691,679,2
545,491,668,2
541,612,697,2
450,406,594,2
599,471,650,2
430,490,669,2
436,519,641,2
547,540,715,2
495,484,689,2
640,497,580,2
609,384,695,2
606,314,689,2
457,275,790,2
586,428,820,2
513,535,727,2
451,488,681,2
583,716,645,2
447,488,713,2
658,722,701,2
341,455,738,2
451,617,603,2
504,603,698,2
326,610,781,2
541,591,706,2
556,560,789,2
492,555,527,2
597,594,344,2
543,533,624,2
510,381,561,2
657,284,774,2
504,337,802,2
421,243,767,2
466,353,749,2
508,312,696,2
490,422,719,2
561,485,719,2
442,677,752,2
490,620,695,2
624,571,782,2
509,766,699,2
559,405,557,2
440,543,564,2
589,292,713,2
554,621,579,2
429,540,802,2
492,695,684,2
444,651,600,2
597,636,702,2
349,513,635,2
327,614,558,2
378,522,653,2
421,526,757,2
537,506,708,2
601,333,705,2
682,370,676,2
660,407,846,2
346,345,738,2
618,494,634,2
333,361,645,2
462,548,615,2
696,536,865,2
411,499,669,2
758,452,799,2
459,399,669,2
278,564,578,2
604,707,686,2
535,718,733,2
397,809,541,2
466,694,559,2
707,428,610,2
661,268,721,2
414,267,771,2
454,322,722,2
513,410,583,2
724,457,728,2
329,481,739,2
441,639,652,2
463,733,709,2
564,551,738,2
369,675,725,2
299,578,699,2
567,695,683,2
486,450,736,2
400,605,653,2
497,528,627,2
602,784,594,2
563,526,635,2
533,518,583,2
523,518,658,2
426,458,697,2
538,394,679,2
510,515,630,2
492,363,646,2
638,526,684,2
459,447,748,2
480,726,730,2
561,630,695,2
656,569,640,2
340,309,578,2
673,568,664,2
593,309,699,2
490,581,758,2
480,388,781,2
443,737,630,2
475,548,611,2
514,635,670,2
420,588,715,2
486,779,733,2
319,601,678,2
474,617,608,2
414,455,707,2
451,560,699,2
541,271,733,2
484,355,698,2
677,625,690,2
433,543,559,2
619,572,622,2
592,397,867,2
361,470,693,2
404,472,666,2
491,516,671,2
552,424,662,2
434,332,626,2
446,469,753,2
495,571,720,2
615,562,737,2
466,718,671,2
603,580,578,2
494,490,683,2
563,393,871,2
482,597,607,2
372,672,496,2
555,712,676,2
514,382,642,2
259,621,636,2
283,777,711,2
610,451,555,2
484,533,631,2
354,426,833,2
428,399,827,2
424,722,655,2
607,243,704,2
470,494,722,2
504,736,636,2
593,556,718,2
575,732,656,2
457,354,640,2
364,454,665,2
634,492,774,2
477,375,590,2
467,435,730,2
462,362,758,2
340,501,758,2
711,673,650,2
325,844,615,2
590,766,631,2
392,296,592,2
748,510,845,2
388,444,710,2
417,582,563,2
526,452,636,2
539,648,716,2
509,613,576,2
281,561,681,2
213,639,705,2
588,795,681,2
412,494,663,2
327,498,719,2
375,664,743,2
437,536,737,2
501,467,671,2
456,520,683,2
576,331,614,2
550,560,595,2
751,462,671,2
454,368,767,2
270,528,782,2
469,492,875,2
290,581,608,2
440,504,647,2
487,558,766,2
404,724,763,2
514,525,586,2
511,956,551,2
617,480,582,2
484,463,733,2
521,445,691,2
554,380,762,2
404,638,658,2
522,539,600,2
363,646,639,2
450,710,692,2
327,517,736,2
453,686,727,2
588,410,561,2
468,337,751,2
463,533,713,2
355,339,843,2
462,558,752,2
495,432,602,2
618,561,683,2
538,685,688,2
587,652,613,2
526,441,675,2
435,570,784,2
329,268,704,2
465,431,670,2
553,341,635,2
485,512,698,2
484,434,754,2
645,692,779,2
466,651,652,2
637,460,674,2
518,531,714,2
613,427,732,2
394,629,686,2
325,561,629,2
460,657,482,2
565,798,660,2
451,736,693,2
256,530,642,2
442,658,601,2
457,441,544,2
600,539,711,2
282,492,753,2
434,506,642,2
560,594,834,2
460,403,802,2
324,408,572,2
645,585,528,2
632,252,680,2
586,586,805,2
310,273,774,2
360,551,837,2
370,319,765,2
575,475,668,2
535,535,572,2
472,586,671,2
528,649,697,2
405,745,742,2
501,455,678,2
666,558,660,2
451,405,688,2
540,350,751,2
428,564,658,2
502,448,641,2
544,684,673,2
645,604,801,2
425,656,741,2
328,666,699,2
468,654,612,2
323,654,614,2
390,594,566,2
555,448,703,2
618,436,658,2
529,381,728,2
529,557,719,2
389,434,599,2
623,623,695,2
412,446,802,2
375,583,544,2
570,627,747,2
231,418,422,2
647,409,674,2
602,315,907,2
434,104,770,2
532,542,669,2
508,623,739,2
574,716,720,2
186,579,676,2
954,129,1252,2
560,635,502,2
353,847,524,2
261,533,571,2
360,944,543,2
352,463,553,2
526,1114,438,2
347,165,692,2
509,755,677,2
663,792,706,2
207,313,622,2
426,745,577,2
553,224,755,2
230,637,751,2
500,607,594,2
294,550,579,2
657,529,603,2
502,249,553,2
83,373,528,2
1317,1246,1207,2
271,-585,560,2
523,587,843,2
592,-8,704,2
464,350,679,2
702,415,763,2
149,986,743,2
15,1205,826,2
789,762,759,2
466,717,700,2
710,427,495,2
457,625,517,2
421,622,550,2
183,520,368,2
473,905,712,2
233,565,511,2
847,685,750,2
-117,585,675,2
832,953,981,2
212,300,487,2
604,437,771,2
403,483,626,2
86,502,736,2
644,522,700,2
99,569,813,2
708,728,695,2
374,386,700,2
389,507,772,2
568,658,422,2
289,588,440,2
703,753,738,2
520,292,702,2
314,581,732,2
76,1002,694,2
295,879,783,2
-95,1031,574,2
504,658,535,2
674,541,541,2
1120,478,663,2
957,175,550,2
-166,996,709,2
180,451,515,2
226,826,678,2
162,268,443,2
944,1026,926,2
632,-61,792,2
265,902,837,2
365,622,738,2
463,478,698,2
499,668,756,2
238,415,713,2
98,712,459,2
770,731,617,2
798,476,895,2
476,428,603,2
295,518,463,2
565,337,515,2
804,414,755,2
337,492,865,2
350,752,666,2
372,647,705,2
514,599,740,2
334,799,579,2
520,585,572,2
844,379,576,2
571,341,812,2
223,270,688,2
534,544,619,2
630,348,787,2
261,760,545,2
602,592,663,2
573,761,829,2
652,110,815,2
-21,1087,815,2
351,833,798,2
319,258,588,2
427,757,607,2
442,368,723,2
497,716,637,2
609,418,549,2
639,419,674,2
750,366,654,2
359,252,623,2
438,662,673,2
459,177,702,2
445,427,583,2
607,635,889,2
510,606,779,2
537,594,669,2
358,799,695,2
350,510,552,2
627,430,650,2
501,273,591,2
678,417,820,2
577,337,760,2
402,486,794,2
510,707,654,2
231,501,611,2
483,693,710,2
611,465,822,2
302,501,704,2
442,609,648,2
459,555,641,2
473,449,731,2
560,591,660,2
573,448,845,2
357,589,575,2
660,568,641,2
359,535,618,2
431,692,562,2
380,462,596,2
551,807,709,2
516,279,526,2
495,459,530,2
658,141,721,2
535,340,780,2
530,166,879,2
112,482,579,2
725,643,753,2
612,585,938,2
347,337,708,2
374,413,494,2
578,518,659,2
1194,475,1091,2
294,498,850,2
133,764,585,2
638,759,495,2
662,596,709,2
418,373,697,2
195,802,700,2
566,726,658,2
471,452,695,2
461,607,807,2
472,674,845,2
375,334,656,2
228,619,468,2
704,619,708,2
218,670,696,2
431,467,493,2
774,407,761,2
351,450,696,2
751,220,655,2
431,288,596,2
317,696,811,2
702,76,738,2
563,320,675,2
311,483,726,2
442,714,812,2
288,762,809,2
279,928,727,2
587,723,826,2
574,683,537,2
646,276,612,2
481,422,513,2
656,421,786,2
313,610,700,2
325,693,565,2
314,731,635,2
656,663,711,2
439,604,596,2
380,658,640,2
394,535,651,2
190,611,488,2
438,746,693,2
402,155,618,2
586,662,661,2
546,329,696,2
521,574,754,2
569,489,726,2
511,538,728,2
415,480,664,2
589,424,654,2
489,408,745,2
530,385,743,2
460,291,559,2
633,528,683,2
616,414,884,2
475,306,654,2
526,443,686,2
394,475,809,2
394,581,527,2
457,720,800,2
498,834,736,2
452,778,551,2
416,572,600,2
988,266,542,2
460,336,885,2
431,511,567,2
483,400,630,2
540,764,770,2
428,648,625,2
349,629,734,2
211,548,547,2
846,939,888,2
205,459,273,2
454,650,838,2
265,487,705,2
382,402,572,2
561,523,667,2
811,562,826,2
372,619,666,2
506,574,643,2
542,524,617,2
774,734,926,2
11,203,189,2
362,317,584,2
488,378,1031,2
401,360,856,2
598,241,633,2
801,421,742,2
563,722,775,2
501,692,785,2
434,745,689,2
181,821,474,2
379,776,723,2
201,844,631,2
432,799,609,2
439,686,435,2
688,516,689,2
430,349,551,2
723,171,605,2
471,277,461,2
538,474,761,2
445,661,835,2
388,553,909,2
30,487,789,2
656,846,807,2
301,989,677,2
413,671,571,2
445,690,608,2
375,674,752,2
382,827,488,2
451,402,653,2
487,755,524,2
403,317,595,2
676,666,584,2
410,268,489,2
580,431,599,2
612,1,680,2
679,255,1008,2
295,287,667,2
783,572,1070,2
262,172,539,2
535,609,745,2
603,352,920,2
499,806,806,2
241,745,604,2
646,796,665,2
508,935,545,2
752,467,711,2
559,403,638,2
448,486,666,2
441,570,574,2
396,406,592,2
383,626,684,2
597,581,569,2
377,504,766,2
585,484,534,2
556,602,643,2
553,169,779,2
455,417,811,2
496,342,666,2
368,285,736,2
456,448,738,2
710,580,915,2
372,415,929,2
506,416,566,2
616,468,783,2
659,585,670,2
497,639,668,2
677,497,648,2
400,423,524,2
515,465,644,2
572,450,888,2
489,368,836,2
650,439,709,2
388,371,651,2
538,657,675,2
434,535,708,2
407,529,664,2
598,658,776,2
288,620,641,2
488,442,602,2
675,536,667,2
617,347,694,2
476,372,531,2
472,322,678,2
675,342,828,2
425,321,735,2
688,634,844,2
508,413,767,2
400,529,630,2
480,515,731,2
454,482,682,2
356,432,615,2
644,1032,564,2
502,60,1025,2
-173,951,363,2
1195,52,910,2
286,989,637,2
576,245,647,2
322,573,556,2
719,453,792,2
477,525,582,2
683,380,641,2
388,545,905,2
695,446,1074,2
561,-39,661,2
435,226,590,2
515,427,583,2
628,295,803,2
423,281,731,2
438,733,888,2
364,628,763,2
597,803,657,2
648,423,693,2
636,491,642,2
655,336,675,2
534,133,764,2
368,262,779,2
429,516,625,2
492,465,786,2
601,989,846,2
390,634,667,2
377,606,608,2
377,561,461,2
505,595,592,2
422,304,615,2
523,526,798,2
454,417,834,2
657,528,776,2
521,413,689,2
481,358,699,2
402,329,688,2
510,231,650,2
553,556,765,2
643,464,803,2
486,453,841,2
495,500,815,2
426,361,706,2
476,365,579,2
584,429,681,2
448,307,730,2
504,499,767,2
573,597,821,2
461,563,646,2
501,527,576,2
631,425,855,2
573,358,780,2
565,344,687,2
600,436,689,2
433,451,661,2
591,532,643,2
401,415,684,2
512,763,789,2
442,338,767,2
527,714,621,2
612,508,837,2
360,504,694,2
284,572,523,2
534,525,685,2
702,281,840,2
463,587,752,2
348,377,727,2
349,395,667,2
689,478,772,2
562,360,744,2
686,571,637,2
457,412,642,2
587,550,748,2
562,360,725,2
494,360,777,2
323,282,616,2
570,298,726,2
564,396,758,2
530,418,710,2
474,445,781,2
482,453,799,2
556,361,729,2
701,463,711,2
573,295,810,2
596,372,720,2
487,340,804,2
444,374,792,2
447,497,654,2
557,575,691,2
764,545,862,2
394,632,711,2
501,633,718,2
344,509,763,2
363,752,676,2
323,605,693,2
278,654,675,2
421,323,637,2
706,363,519,2
505,197,796,2
611,336,767,2
506,131,770,2
518,390,692,2
585,435,696,2
352,529,823,2
494,314,765,2
423,316,709,2
539,194,683,2
611,168,733,2
570,193,651,2
646,452,909,2
569,394,859,2
580,507,782,2
548,589,768,2
554,631,833,2
404,451,588,2
824,415,688,2
529,466,788,2
404,501,756,2
506,463,622,2
611,706,608,2
623,633,685,2
459,623,677,2
426,657,793,2
381,541,625,2
481,622,730,2
319,579,638,2
400,590,545,2
381,438,688,2
578,292,734,2
711,414,713,2
620,407,747,2
369,305,743,2
482,445,539,2
547,338,777,2
477,334,719,2
551,517,760,2
380,379,703,2
682,244,800,2
511,148,637,2
651,401,938,2
479,92,845,2
388,404,606,2
493,678,790,2
470,615,747,2
507,873,718,2
588,440,786,2
627,547,754,2
539,281,602,2
596,547,682,2
594,316,679,2
395,452,771,2
263,370,618,2
568,547,607,2
568,438,791,2
550,567,768,2
440,447,763,2
498,615,697,2
395,498,677,2
448,377,675,2
505,479,712,2
416,475,844,2
465,448,595,2
739,272,757,2
597,381,744,2
617,242,674,2
590,340,703,2
423,279,738,2
503,384,660,2
692,383,884,2
429,429,750,2
482,444,644,2
463,316,648,2
602,407,754,2
715,526,794,2
522,461,750,2
558,641,732,2
380,537,667,2
489,427,590,2
680,285,732,2
589,157,742,2
580,262,686,2
719,280,868,2
473,334,789,2
499,534,765,2
533,598,777,2
469,594,798,2
467,678,698,2
387,628,608,2
505,565,695,2
433,609,683,2
476,384,702,2
385,421,637,2
564,246,600,2
679,324,777,2
610,188,863,2
486,244,682,2
497,333,704,2
462,166,760,2
701,401,826,2
414,266,800,2
586,478,729,2
495,346,773,2
543,359,775,2
587,266,726,2
541,502,807,2
474,333,695,2
759,366,907,2
384,614,779,2
415,549,675,2
750,503,688,2
450,410,742,2
732,486,787,2
333,335,681,2
503,692,613,2
546,274,799,2
416,628,703,2
526,454,711,2
489,431,694,2
389,402,690,2
579,515,826,2
447,538,757,2
329,494,615,2
474,314,772,2
475,352,802,2
586,433,819,2
513,228,700,2
613,356,703,2
502,379,668,2
593,321,755,2
491,339,804,2
463,485,775,2
453,510,714,2
566,419,620,2
576,513,675,2
453,439,782,2
345,375,744,2
560,436,752,2
522,313,800,2
624,299,607,2
643,355,842,2
508,270,718,2
610,386,678,2
531,296,851,2
562,258,807,2
607,517,731,2
563,438,779,2
439,696,771,2
492,510,766,2
480,512,725,2
553,597,688,2
468,485,599,2
527,514,841,2
461,321,598,2
462,556,784,2
504,252,778,2
696,280,811,2
398,422,708,2
651,288,653,2
472,518,642,2
504,513,699,2
480,355,754,2
528,541,770,2
553,451,715,2
585,423,617,2
513,424,752,2
414,450,666,2
450,392,664,2
567,392,733,2
559,401,764,2
488,367,704,2
625,332,775,2
561,361,734,2
456,259,749,2
592,264,735,2
504,382,797,2
556,484,696,2
628,638,806,2
385,343,642,2
585,406,789,2
518,437,824,2
529,470,782,2
399,512,697,2
664,439,748,2
553,467,734,2
456,480,744,2
456,450,698,2
670,428,790,2
415,454,640,2
528,613,630,2
467,414,652,2
527,490,712,2
508,293,698,2
483,415,755,2
470,271,691,2
612,197,734,2
459,524,796,2
462,370,694,2
493,406,681,2
574,531,757,2
576,512,727,2
565,375,650,2
486,302,720,2
607,291,690,2
368,148,789,2
694,391,749,2
583,374,801,2
544,415,795,2
468,421,696,2
504,594,774,2
436,581,789,2
474,547,681,2
526,594,744,2
531,597,625,2
573,291,734,2
593,363,636,2
521,358,729,2
635,476,768,2
329,374,641,2
743,401,734,2
395,527,720,2
419,413,604,2
650,358,726,2
510,450,791,2
572,446,709,2
529,387,808,2
493,381,614,2
645,341,813,2
494,501,705,2
615,425,739,2
443,454,729,2
686,452,705,2
448,418,752,2
514,554,620,2
488,643,594,2
625,520,699,2
494,494,617,2
449,465,737,2
498,455,665,2
507,434,754,2
532,456,734,2
448,428,592,2
550,548,748,2
446,368,793,2
487,413,731,2
590,369,803,2
661,339,682,2
696,416,597,2
626,520,644,2
381,468,621,2
409,461,813,2
500,569,901,2
684,311,743,2
727,431,687,2
659,573,566,2
711,577,706,2
672,414,670,2
609,307,467,2
641,356,237,2
538,527,317,2
536,652,559,2
550,480,581,2
551,787,571,2
460,732,522,2
392,659,635,2
433,738,783,2
566,836,716,2
583,849,533,2
644,648,373,2
606,534,425,2
613,572,479,2
728,417,260,2
609,451,93,2
685,344,534,2
519,127,830,2
552,11,640,2
874,-717,811,2
644,195,1137,2
758,68,776,2
749,24,676,2
534,23,752,2
749,161,703,2
652,371,665,2
723,142,538,2
673,166,544,2
647,330,676,2
801,264,517,2
678,208,673,2
662,257,691,2
722,291,671,2
700,240,662,2
652,336,615,2
621,201,694,2
669,250,732,2
616,143,747,2
642,173,834,2
614,154,830,2
663,199,830,2
676,150,862,2
655,93,866,2
619,316,712,2
649,180,671,2
625,433,620,2
620,446,596,2
707,199,439,2
671,441,520,2
629,148,671,2
726,195,702,2
727,380,720,2
569,232,779,2
640,162,731,2
651,469,769,2
685,312,597,2
684,237,654,2
857,562,637,2
629,239,674,2
741,88,345,2
692,629,626,2
705,132,566,2
606,-38,639,2
659,3,515,2
697,383,707,2
609,467,804,2
659,514,662,2
609,259,526,2
883,370,565,2
721,276,705,2
758,444,706,2
705,325,568,2
628,389,670,2
624,503,553,2
699,194,487,2
714,330,411,2
682,293,641,2
823,121,447,2
765,361,649,2
718,127,845,2
727,62,723,2
644,194,443,2
753,451,696,2
719,333,651,2
872,506,573,2
667,461,701,2
625,467,671,2
647,315,626,2
705,482,489,2
668,443,608,2
696,307,638,2
722,386,390,2
672,402,643,2
647,312,605,2
734,296,573,2
688,360,527,2
661,338,570,2
735,95,552,2
734,236,571,2
692,71,710,2
723,216,620,2
809,438,540,2
670,464,748,2
806,428,758,2
675,431,603,2
622,433,677,2
689,381,567,2
710,410,377,2
681,411,609,2
741,387,598,2
600,236,540,2
772,412,518,2
606,352,712,2
702,367,577,2
625,271,648,2
718,167,475,2
739,252,677,2
739,164,715,2
657,44,710,2
617,168,692,2
791,288,525,2
637,283,617,2
798,414,497,2
657,342,621,2
688,227,573,2
717,235,609,2
710,437,662,2
634,241,727,2
684,155,637,2
791,179,507,2
749,452,486,2
736,506,544,2
553,320,707,2
499,298,744,2
542,190,846,2
703,121,719,2
840,468,859,2
823,547,688,2
836,254,558,2
651,440,447,2
660,456,415,2
605,237,523,2
757,199,513,2
652,147,662,2
758,143,639,2
712,40,895,2
749,322,552,2
736,333,791,2
715,451,614,2
726,542,823,2
678,416,577,2
715,536,585,2
571,531,579,2
679,481,525,2
687,374,466,2
696,410,335,2
700,401,358,2
655,264,507,2
629,244,624,2
662,142,610,2
678,130,605,2
607,214,666,2
763,192,587,2
798,130,454,2
783,160,433,2
845,110,587,2
651,119,552,2
613,123,565,2
825,166,553,2
861,103,574,2
978,29,415,2
1209,187,297,2
1223,253,272,2
1185,407,99,2
1046,404,208,2
1027,375,153,2
944,390,223,2
853,484,196,2
871,553,147,2
933,570,56,2
1007,445,-65,2
1066,305,-123,2
997,207,-97,2
1054,109,-81,2
933,57,-3,2
899,94,69,2
931,153,82,2
1072,389,94,2
1557,-667,648,2
995,-170,446,2
929,-143,84,2
1070,196,68,2
984,219,-10,2
873,228,-155,2
827,181,-190,2
909,153,-248,2
993,258,-230,2
990,274,-188,2
968,216,-216,2
933,235,-140,2
855,205,-90,2
827,45,-42,2
925,64,30,2
1032,175,-20,2
1001,197,-141,2
994,363,-164,2
988,549,-207,2
856,365,-207,2
851,251,-154,2
883,194,-130,2
1038,143,-131,2
1005,156,-40,2
906,220,-113,2
988,234,-136,2
976,243,-133,2
942,137,-95,2
986,114,5,2
1015,75,-132,2
1068,214,-112,2
971,282,-181,2
903,94,-144,2
801,176,-147,2
698,182,-184,2
736,92,-119,2
975,63,-138,2
1226,176,-48,2
1058,292,-130,2
1048,138,-95,2
1033,191,-31,2
812,292,-125,2
732,335,-111,2
790,226,-101,2
980,100,-79,2
993,256,-221,2
953,184,-213,2
992,330,-218,2
880,392,-141,2
886,160,-8,2
920,109,81,2
975,233,-153,2
994,236,-109,2
1014,188,-137,2
995,333,-141,2
832,416,-102,2
802,356,-48,2
856,416,-125,2
910,205,-165,2
827,149,-216,2
1006,332,-269,2
1007,348,-223,2
873,400,-209,2
803,167,-144,2
860,99,-87,2
1028,184,-72,2
981,168,-49,2
1017,96,-40,2
1058,214,24,2
946,302,-5,2
905,139,15,2
979,113,-2,2
1012,232,-81,2
911,198,-126,2
977,155,-157,2
965,224,-117,2
868,214,-127,2
893,114,-85,2
1289,689,-149,2
1319,821,-51,2
1203,94,446,2
905,246,340,2
632,411,242,2
539,398,125,2
527,395,-22,2
579,390,-24,2
675,442,34,2
861,608,-23,2
954,518,30,2
848,509,101,2
794,470,122,2
786,401,172,2
912,390,166,2
886,404,201,2
858,318,164,2
863,295,215,2
845,354,259,2
851,302,257,2
929,268,237,2
960,252,270,2
904,270,277,2
892,136,235,2
945,176,173,2
982,197,126,2
1059,225,25,2
968,260,2,2
980,235,-48,2
1011,241,-82,2
843,292,-25,2
809,331,45,2
901,295,37,2
1010,272,143,2
971,219,184,2
1067,113,130,2
1016,82,178,2
991,68,147,2
1032,80,71,2
1116,82,25,2
1060,79,24,2
1059,64,-10,2
981,60,-42,2
859,85,-37,2
887,96,-29,2
916,91,-49,2
986,107,-35,2
965,103,-30,2
986,105,-17,2
959,119,34,2
918,119,63,2
893,47,43,2
986,14,16,2
952,52,51,2
1019,108,24,2
1044,142,29,2
973,167,29,2
1041,165,-8,2
1062,140,-21,2
1000,148,-24,2
953,151,-37,2
970,170,-3,2
847,165,0,2
881,154,-24,2
1054,125,-49,2
1097,106,-26,2
1015,98,-37,2
1057,88,-50,2
976,81,-18,2
875,55,-5,2
896,10,-10,2
918,-37,33,2
911,101,34,2
988,139,-34,2
1012,179,-19,2
920,183,-9,2
930,145,-43,2
970,111,-61,2
1020,127,-32,2
955,162,-16,2
941,162,-12,2
929,143,13,2
925,145,14,2
1003,127,-41,2
984,85,-46,2
975,70,-70,2
1004,51,-78,2
892,76,-52,2
841,92,-33,2
959,75,-39,2
1016,96,-25,2
955,122,-16,2
942,118,-9,2
937,116,28,2
866,134,98,2
998,108,80,2
1146,108,70,2
996,91,60,2
988,110,-7,2
1002,123,14,2
890,146,-3,2
889,163,-42,2
1146,157,-98,2
1126,178,-69,2
888,176,-67,2
787,167,-48,2
744,169,29,2
766,156,30,2
957,143,-1,2
1204,155,5,2
1186,140,-7,2
1189,172,0,2
1013,169,89,2
862,180,150,2
892,105,173,2
990,127,267,2
935,184,204,2
1020,246,107,2
980,300,119,2
914,312,41,2
935,298,-85,2
973,293,-135,2
825,256,-125,2
772,226,-165,2
741,235,-117,2
787,242,-107,2
866,216,-102,2
1033,190,-76,2
1109,160,53,2
1115,37,-7,2
1216,-212,156,2
1133,116,356,2
905,162,213,2
956,99,109,2
1000,132,22,2
992,165,-58,2
963,121,-83,2
890,126,-72,2
916,158,-90,2
994,207,-110,2
943,249,-101,2
857,205,-109,2
993,210,-83,2
899,229,-26,2
926,214,-12,2
995,160,-12,2
1096,116,-15,2
1067,69,13,2
1061,20,45,2
874,2,58,2
823,-69,11,2
974,-22,-35,2
1161,78,-56,2
1090,169,-54,2
1045,238,-67,2
847,203,-10,2
802,93,-16,2
858,64,-34,2
1013,95,-54,2
999,180,-39,2
1066,187,-84,2
942,105,-22,2
894,179,-19,2
984,204,-15,2
1022,84,-33,2
932,16,-48,2
1079,203,-128,2
1015,334,-128,2
890,273,-132,2
948,208,-141,2
956,84,-78,2
893,171,-73,2
921,149,-179,2
889,182,-159,2
781,80,-130,2
889,60,-168,2
1101,37,-152,2
1051,173,-123,2
1159,172,-187,2
1113,248,-113,2
870,151,-41,2
821,65,-10,2
887,89,-86,2
923,85,-157,2
894,28,-120,2
985,36,-123,2
946,109,-132,2
975,145,-205,2
1083,144,-201,2
1074,198,-153,2
946,134,-147,2
952,104,-99,2
854,80,-66,2
879,33,-87,2
1043,86,-134,2
1065,68,-107,2
898,145,-106,2
954,168,-185,2
891,185,-133,2
882,174,-123,2
1062,83,-177,2
1060,19,-130,2
910,62,-129,2
1111,107,-198,2
990,147,-107,2
720,160,-15,2
782,47,-15,2
960,66,-91,2
1064,197,-158,2
1027,230,-238,2
949,210,-184,2
886,216,-122,2
942,189,-119,2
969,157,-109,2
941,150,-60,2
909,119,-113,2
942,109,-105,2
872,147,-61,2
911,110,-90,2
1044,117,-67,2
1038,123,-15,2
1000,123,-66,2
1005,131,-61,2
901,190,-35,2
817,103,-33,2
958,10,-59,2
1071,-1,-48,2
963,132,-84,2
1062,100,-141,2
936,145,-63,2
878,132,-59,2
942,95,-55,2
1079,87,-73,2
979,107,-46,2
1009,109,-93,2
1044,152,-63,2
943,179,-2,2
858,157,7,2
933,66,2,2
977,195,-22,2
1010,119,-112,2
1102,223,-123,2
1023,165,-72,2
961,145,-39,2
932,101,3,2
985,47,-7,2
929,86,-71,2
1003,45,-125,2
967,139,-119,2
918,116,-125,2
857,29,-115,2
935,-102,-159,2
1023,-14,-234,2
979,-9,-252,2
1033,107,-236,2
948,71,-152,2
885,200,86,2
872,265,34,2
865,532,102,2
830,867,156,2
966,802,63,2
1003,688,-66,2
954,596,-111,2
1037,592,-158,2
1169,587,-183,2
1200,473,-147,2
1120,393,-224,2
1137,263,-210,2
980,191,-172,2
903,153,-85,2
1091,82,-129,2
949,99,-112,2
672,174,107,2
731,224,184,2
796,58,316,2
743,58,387,2
802,144,398,2
882,101,320,2
1057,108,441,2
1090,16,387,2
1146,-61,342,2
971,-9,432,2
777,21,461,2
751,42,383,2
1057,213,280,2
1048,168,286,2
932,54,181,2
920,88,262,2
793,23,278,2
731,129,218,2
826,261,251,2
993,459,276,2
990,320,263,2
1093,175,180,2
1029,152,195,2
886,190,220,2
864,265,213,2
903,345,175,2
1014,342,175,2
938,303,149,2
987,265,135,2
876,258,165,2
765,320,145,2
790,408,159,2
876,342,84,2
978,265,93,2
977,575,27,2
773,617,-83,2
806,467,0,2
847,474,-161,2
844,516,-218,2
822,466,-127,2
863,483,-63,2
786,715,-54,2
662,717,-65,2
640,538,-25,2
732,468,-40,2
830,679,-138,2
858,538,-27,2
933,584,-87,2
828,717,-133,2
728,465,-22,2
710,350,-12,2
787,541,-35,2
848,526,3,2
807,437,5,2
824,665,-116,2
836,694,-27,2
764,533,89,2
692,483,83,2
703,519,10,2
791,601,8,2
829,607,29,2
798,673,-66,2
759,647,-4,2
719,444,101,2
737,409,61,2
778,795,-125,2
918,164,114,2
810,850,-80,2
765,334,-119,2
946,648,7,2
905,998,83,2
837,600,58,2
771,286,154,2
815,569,282,2
747,560,219,2
767,660,185,2
711,550,187,2
643,396,159,2
688,359,133,2
759,325,219,2
913,645,599,2
838,603,557,2
754,555,544,2
567,215,218,2
606,466,382,2
667,560,486,2
783,761,537,2
774,551,311,2
822,308,357,2
859,561,452,2
722,689,373,2
610,497,298,2
582,416,285,2
673,530,299,2
766,722,362,2
758,520,306,2
836,570,328,2
827,657,388,2
756,588,390,2
680,505,368,2
691,570,332,2
687,658,366,2
638,476,290,2
709,481,263,2
699,555,319,2
695,484,320,2
731,473,353,2
822,632,345,2
869,741,347,2
744,480,329,2
711,438,261,2
716,498,363,2
703,580,336,2
677,491,322,2
733,530,296,2
804,670,306,2
770,567,374,2
771,490,267,2
749,493,371,2
659,523,355,2
665,463,335,2
763,623,332,2
802,754,305,2
723,534,341,2
663,389,267,2
729,501,251,2
736,583,323,2
708,533,294,2
762,543,286,2
910,753,299,2
859,785,336,2
694,476,290,2
654,415,231,2
676,533,305,2
679,582,303,2
699,552,268,2
781,641,234,2
893,788,325,2
779,609,366,2
759,511,281,2
739,534,327,2
665,529,316,2
641,450,284,2
704,558,275,2
793,667,271,2
740,572,317,2
711,440,260,2
777,546,271,2
716,538,345,2
655,469,300,2
672,479,289,2
798,673,290,2
861,762,310,2
714,524,277,2
717,509,250,2
702,539,323,2
670,551,306,2
664,485,286,2
721,655,271,2
844,712,283,2
780,647,312,2
685,421,246,2
756,546,258,2
759,624,327,2
703,482,297,2
707,539,226,2
788,619,258,2
810,694,285,2
713,515,250,2
763,502,232,2
748,574,289,2
673,511,313,2
678,416,248,2
796,641,273,2
838,731,284,2
752,563,262,2
682,443,231,2
806,538,278,2
769,635,302,2
688,446,279,2
709,492,234,2
811,642,282,2
883,751,315,2
741,523,253,2
706,432,223,2
726,576,280,2
723,568,330,2
737,548,311,2
753,619,260,2
796,628,287,2
763,620,304,2
691,451,233,2
769,560,294,2
719,604,284,2
649,446,309,2
700,535,275,2
824,676,319,2
847,701,290,2
712,575,254,2
556,318,243,2
645,431,288,2
700,390,369,2
768,452,302,2
977,399,335,2
1129,635,442,2
1101,692,304,2
964,525,198,2
822,176,107,2
996,169,52,2
716,248,83,2
694,235,60,2
803,205,77,2
929,208,110,2
1070,305,321,2
910,325,348,2
833,259,329,2
847,214,335,2
868,176,362,2
899,304,327,2
957,254,270,2
994,252,293,2
920,253,245,2
860,195,304,2
929,198,278,2
888,203,381,2
905,322,339,2
874,44,271,2
1012,242,316,2
995,270,260,2
836,243,256,2
827,230,311,2
889,148,410,2
840,65,385,2
959,164,373,2
919,126,342,2
1028,295,358,2
937,193,275,2
953,91,385,2
991,-215,430,2
989,-135,360,2
978,515,349,2
885,407,497,2
833,281,547,2
850,459,391,2
881,609,327,2
829,612,283,2
688,608,302,2
616,620,282,2
565,630,299,2
480,563,310,2
562,544,338,2
659,575,446,2
793,547,588,2
794,574,845,2
768,624,1018,2
755,690,1227,2
725,904,1094,2
602,914,869,2
359,1008,550,2
193,1253,379,2
-116,1099,221,2
-194,964,-133,2
-296,723,-679,2
-282,503,-1011,2
-212,379,-892,2
-170,197,-505,2
-179,230,-64,2
-79,425,838,2
98,396,863,2
749,691,928,2
816,-78,1653,2
629,168,1749,2
231,429,1680,2
299,784,1442,2
23,512,1183,2
-235,576,539,2
-688,815,-7,2
-865,824,-499,2
-996,400,-461,2
-560,314,-1351,2
-513,-12,-1995,2
-493,-196,-1721,2
-540,-292,-1325,2
-353,-197,-900,2
-128,274,-183,2
120,1072,539,2
386,1019,563,2
1391,1330,1072,2
805,298,1028,2
932,-149,1372,2
645,-362,1286,2
544,-175,1200,2
558,0,1110,2
548,148,1252,2
663,442,1167,2
738,534,1090,2
625,536,903,2
217,853,776,2
-176,1461,378,2
-622,1729,-134,2
-615,1564,-85,2
-442,1185,121,2
-363,1030,-240,2
-363,875,-187,2
-270,731,-15,2
-126,720,221,2
113,619,432,2
240,455,495,2
535,496,528,2
648,317,575,2
589,166,721,2
449,248,884,2
589,423,1023,2
715,684,1070,2
790,509,954,2
794,294,943,2
790,443,824,2
520,1308,507,2
134,1642,431,2
-172,1724,527,2
82,1578,523,2
20,1330,352,2
160,1198,297,2
271,934,278,2
462,711,346,2
516,481,390,2
605,363,505,2
516,296,594,2
624,241,601,2
709,237,601,2
668,22,627,2
724,-93,627,2
721,-82,641,2
700,94,661,2
699,292,735,2
645,357,687,2
708,397,622,2
742,518,636,2
616,698,651,2
600,886,678,2
610,970,693,2
590,868,679,2
696,793,652,2
669,614,655,2
660,491,637,2
728,432,616,2
806,382,600,2
784,317,565,2
798,303,487,2
826,325,462,2
897,349,385,2
877,402,409,2
728,372,371,2
672,446,384,2
685,494,412,2
697,494,405,2
707,423,417,2
785,426,403,2
875,375,516,2
865,322,513,2
809,302,530,2
757,338,581,2
748,372,619,2
733,382,638,2
789,452,676,2
817,562,714,2
820,784,754,2
744,955,768,2
549,1018,672,2
235,1119,916,2
235,1563,1118,2
105,1356,1054,2
22,1452,855,2
-114,1394,573,2
-323,1340,-62,2
-229,1466,-1082,2
174,687,-1960,2
446,82,-1526,2
779,240,-824,2
1465,1135,-171,2
1597,1168,80,2
1675,-219,590,2
1765,-434,1479,2
1208,-359,1602,2
576,-222,1250,2
7,145,1093,2
-548,452,1049,2
-236,928,1197,2
-365,736,1272,2
-151,505,1158,2
-137,520,926,2
-79,483,756,2
-183,638,699,2
-40,602,617,2
-188,551,635,2
-74,699,564,2
21,689,558,2
39,584,462,2
56,551,504,2
169,802,450,2
149,767,372,2
270,794,408,2
364,901,447,2
432,1228,441,2
336,1318,508,2
382,1172,569,2
382,982,479,2
502,1013,353,2
536,829,317,2
523,505,263,2
579,394,363,2
788,434,355,2
970,584,566,2
1000,574,582,2
1030,514,570,2
882,501,420,2
1161,445,329,2
942,425,304,2
896,279,192,2
899,356,126,2
768,409,143,2
815,376,85,2
811,459,99,2
826,549,68,2
760,784,106,2
637,757,114,2
601,669,150,2
662,689,186,2
744,707,170,2
888,812,192,2
921,601,230,2
907,92,196,2
831,255,119,2
759,499,66,2
727,575,57,2
760,531,-16,2
857,400,-61,2
1069,569,111,2
1019,494,124,2
857,393,150,2
804,357,296,2
839,411,251,2
834,526,189,2
852,556,95,2
924,587,29,2
973,638,-5,2
896,643,6,2
686,574,-12,2
544,517,-16,2
632,595,33,2
691,733,124,2
756,688,143,2
756,555,171,2
819,463,193,2
899,525,215,2
896,573,180,2
808,507,129,2
736,458,105,2
755,452,72,2
806,571,114,2
818,576,69,2
862,496,28,2
883,417,16,2
946,444,29,2
942,463,89,2
892,428,237,2
877,268,284,2
833,234,209,2
831,474,130,2
752,626,70,2
720,589,9,2
736,617,-31,2
806,644,-79,2
879,730,-72,2
788,787,-27,2
655,592,14,2
666,394,38,2
748,603,60,2
674,651,40,2
629,532,22,2
755,576,-44,2
953,720,-139,2
903,857,-21,2
721,651,-100,2
542,416,37,2
689,347,-75,2
989,888,-119,2
741,803,-139,2
725,448,162,2
611,353,62,2
633,450,-80,2
839,606,-113,2
892,723,-58,2
764,552,-32,2
764,567,-49,2
766,752,-75,2
693,702,-43,2
681,444,-15,2
723,379,-20,2
824,463,-49,2
895,456,-144,2
901,615,-198,2
821,608,-148,2
787,610,-60,2
779,564,-55,2
740,684,-18,2
687,563,-50,2
725,481,-45,2
794,520,-83,2
872,603,-128,2
913,655,-111,2
800,678,-102,2
712,486,-107,2
754,470,-34,2
741,653,33,2
664,594,6,2
711,445,-17,2
853,587,-29,2
847,710,-69,2
886,690,-109,2
761,594,-10,2
692,353,-44,2
764,529,22,2
837,632,-38,2
770,538,30,2
730,416,-16,2
764,534,7,2
840,599,-3,2
916,767,-80,2
741,654,-59,2
648,268,-18,2
751,260,39,2
803,602,-70,2
882,678,6,2
829,548,-73,2
820,490,-38,2
850,632,-38,2
768,735,-45,2
734,688,-10,2
672,486,13,2
645,427,10,2
773,507,8,2
815,788,-40,2
803,636,-111,2
825,575,-37,2
822,456,-48,2
783,609,3,2
793,493,-8,2
752,612,-12,2
737,480,-62,2
991,484,-75,2
856,673,1,2
675,582,34,2
621,277,-45,2
730,315,-7,2
1027,547,-78,2
906,924,-57,2
710,510,-42,2
655,318,51,2
677,313,-20,2
896,747,7,2
852,744,-102,2
836,579,-36,2
828,333,-45,2
820,583,29,2
814,593,-65,2
856,659,-32,2
734,502,-107,2
746,613,-73,2
777,669,-15,2
763,698,20,2
716,690,67,2
711,469,17,2
780,541,14,2
829,466,-49,2
889,717,-31,2
782,622,-63,2
673,562,-13,2
716,419,4,2
730,584,61,2
745,543,28,2
803,518,0,2
905,545,-43,2
932,640,-58,2
819,685,-35,2
696,510,-6,2
616,373,26,2
737,382,56,2
863,592,27,2
861,776,35,2
808,586,22,2
768,535,4,2
772,453,-5,2
848,585,34,2
776,497,17,2
763,460,-26,2
787,486,-11,2
850,587,-42,2
821,653,26,2
697,555,45,2
821,484,69,2
921,706,30,2
839,702,9,2
727,544,-49,2
767,459,-24,2
859,589,0,2
799,711,35,2
686,546,63,2
657,361,46,2
766,524,36,2
885,663,25,2
878,769,22,2
787,536,-38,2
765,465,5,2
798,506,42,2
759,592,20,2
742,528,58,2
801,461,40,2
826,626,26,2
853,629,11,2
796,607,51,2
724,388,33,2
756,484,19,2
836,547,24,2
833,612,16,2
773,564,20,2
736,493,3,2
795,517,7,2
865,569,2,2
852,699,17,2
771,546,-15,2
802,537,-11,2
835,584,-8,2
760,598,13,2
719,541,75,2
750,445,88,2
849,605,35,2
909,763,27,2
785,712,25,2
646,501,19,2
650,353,18,2
770,486,21,2
834,591,-4,2
848,669,10,2
803,571,4,2
782,522,-14,2
839,580,-7,2
823,615,54,2
751,484,51,2
799,455,56,2
836,477,41,2
845,512,11,2
814,460,45,2
790,400,29,2
850,424,53,2
939,498,104,2
955,544,196,2
869,519,325,2
894,437,369,2
997,430,355,2
1005,475,312,2
994,449,309,2
977,397,298,2
970,419,277,2
926,436,229,2
813,438,248,2
731,425,299,2
761,416,307,2
762,411,299,2
771,434,345,2
743,401,342,2
775,354,301,2
776,316,258,2
775,305,224,2
720,292,211,2
698,302,208,2
713,304,249,2
661,300,260,2
693,275,300,2
812,240,290,2
1080,216,235,2
1006,245,320,2
968,224,323,2
907,134,363,2
915,113,257,2
1116,123,198,2
1228,144,126,2
1210,216,68,2
1065,271,154,2
970,232,170,2
968,212,108,2
1023,178,82,2
976,173,75,2
958,204,81,2
1057,211,82,2
1036,197,69,2
970,165,52,2
967,155,28,2
1006,139,32,2
1025,130,1,2
1054,123,-18,2
947,122,6,2
858,130,-3,2
897,120,-22,2
958,146,-19,2
965,182,2,2
884,186,21,2
894,189,14,2
940,162,28,2
1025,190,0,2
1001,248,10,2
875,271,18,2
892,273,-3,2
879,265,32,2
834,258,30,2
863,237,9,2
928,231,5,2
1018,246,31,2
1000,243,53,2
893,245,108,2
846,162,127,2
962,152,137,2
1078,246,106,2
1041,162,70,2
1039,106,27,2
1077,101,18,2
1112,155,4,2
1051,224,16,2
856,246,47,2
794,212,42,2
867,182,28,2
907,181,31,2
950,193,15,2
1006,211,0,2
1025,235,23,2
1043,260,25,2
985,255,57,2
876,241,95,2
835,240,122,2
905,214,110,2
935,219,121,2
891,247,168,2
923,269,200,2
1014,271,230,2
1061,300,305,2
1066,319,300,2
892,318,287,2
857,317,286,2
917,346,179,2
845,366,156,2
791,409,155,2
815,432,136,2
811,439,76,2
815,399,50,2
817,348,63,2
731,325,97,2
682,301,115,2
764,276,128,2
811,286,155,2
847,264,152,2
930,227,162,2
1056,151,101,2
1156,125,93,2
1158,117,98,2
1008,156,115,2
930,106,43,2
1093,28,56,2
1143,672,230,2
998,484,102,2
974,319,-5,2
1065,258,-57,2
1079,179,-68,2
988,136,-55,2
879,108,-25,2
900,143,-34,2
1029,179,-45,2
1047,203,-33,2
973,167,-40,2
995,144,-48,2
1110,90,6,2
1143,24,10,2
1022,38,5,2
868,195,97,2
842,256,74,2
881,253,112,2
890,251,80,2
873,227,72,2
893,244,94,2
885,304,168,2
898,346,154,2
864,362,246,2
828,312,242,2
876,279,175,2
955,281,159,2
936,308,115,2
899,313,154,2
881,379,144,2
960,439,179,2
902,484,215,2
817,396,150,2
808,328,103,2
885,330,88,2
905,349,119,2
884,330,164,2
941,280,203,2
904,234,331,2
866,230,418,2
845,218,466,2
918,146,551,2
896,46,455,2
1041,-6,438,2
1108,-40,401,2
1083,32,249,2
903,167,194,2
877,235,60,2
908,332,-43,2
876,388,-59,2
731,444,-32,2
697,466,-32,2
862,442,52,2
912,410,218,2
910,239,305,2
973,102,338,2
1257,47,304,2
1286,-20,305,2
1183,7,283,2
977,76,280,2
876,122,236,2
877,108,234,2
856,62,135,2
941,6,138,2
879,-10,115,2
923,-5,106,2
1035,11,101,2
1063,2,109,2
905,39,125,2
986,87,162,2
1010,105,207,2
917,126,216,2
884,193,217,2
951,281,190,2
1113,349,208,2
1130,398,384,2
948,541,436,2
922,565,428,2
919,520,413,2
824,438,303,2
802,411,223,2
776,379,315,2
734,300,286,2
798,317,386,2
778,226,445,2
740,199,507,2
750,94,596,2
678,151,716,2
565,90,704,2
533,151,790,2
583,96,818,2
742,-6,793,2
946,196,849,2
1174,474,785,2
1305,458,602,2
1137,644,531,2
853,675,544,2
720,480,400,2
726,398,304,2
692,254,219,2
653,213,222,2
515,180,382,2
512,233,450,2
460,236,460,2
514,289,456,2
586,293,433,2
686,226,351,2
795,224,331,2
818,206,306,2
721,207,382,2
836,175,377,2
1091,135,337,2
1025,87,385,2
1095,165,373,2
1131,151,384,2
1129,96,294,2
1186,218,448,2
1064,219,454,2
1199,285,358,2
1184,315,348,2
1012,49,284,2
800,-67,236,2
892,173,197,2
912,480,69,2
938,472,-18,2
833,189,-53,2
937,70,-44,2
952,92,-44,2
956,190,-73,2
990,222,-43,2
1115,263,-18,2
1085,292,-43,2
959,266,-54,2
880,256,-25,2
894,270,-22,2
862,286,11,2
832,285,36,2
930,270,56,2
1098,273,55,2
1140,135,65,2
1031,104,135,2
832,295,132,2
779,266,139,2
909,245,116,2
933,146,54,2
878,68,14,2
971,0,-25,2
1071,-18,-44,2
1063,65,-28,2
883,165,21,2
909,243,53,2
1012,275,50,2
965,272,32,2
893,202,-5,2
940,132,-42,2
1047,175,-25,2
1118,261,-14,2
967,270,35,2
918,224,59,2
1016,175,44,2
963,145,72,2
874,140,81,2
869,145,106,2
894,158,153,2
975,113,71,2
980,56,86,2
926,1,57,2
1012,27,0,2
937,109,40,2
851,179,50,2
913,208,27,2
1056,226,2,2
1079,231,-17,2
1030,264,-18,2
880,264,5,2
916,292,9,2
944,294,64,2
915,249,92,2
955,181,125,2
1028,141,178,2
1163,102,166,2
1101,96,243,2
863,83,264,2
835,118,277,2
887,84,255,2
859,18,170,2
841,-6,117,2
960,11,28,2
1148,81,1,2
1106,160,20,2
973,194,55,2
919,217,94,2
1036,251,79,2
923,246,48,2
798,227,56,2
825,196,81,2
982,198,59,2
1159,198,58,2
1013,220,134,2
983,250,191,2
982,239,220,2
964,203,200,2
832,147,211,2
926,107,151,2
1040,128,182,2
976,70,129,2
847,39,130,2
860,-26,156,2
1059,-11,117,2
945,30,171,2
881,44,143,2
942,56,111,2
1026,99,69,2
1007,142,-32,2
992,180,-75,2
1025,233,-53,2
991,288,-60,2
981,289,-61,2
906,264,-15,2
931,202,-3,2
1063,179,4,2
1088,163,55,2
1078,121,93,2
876,64,117,2
891,35,162,2
889,29,190,2
1061,-62,169,2
976,-82,120,2
930,-138,27,2
1062,-47,-32,2
1079,41,-18,2
1109,124,-38,2
899,193,47,2
753,208,39,2
856,183,-15,2
1006,177,-23,2
1065,212,-82,2
975,236,-98,2
985,270,-59,2
989,295,-7,2
972,294,24,2
808,213,73,2
941,152,60,2
1013,158,106,2
960,190,163,2
857,179,185,2
823,132,194,2
947,113,163,2
1061,22,102,2
1045,-20,72,2
949,6,95,2
976,92,98,2
972,145,134,2
944,208,159,2
903,211,112,2
928,218,50,2
962,267,-11,2
994,299,-57,2
885,351,9,2
828,310,35,2
955,249,83,2
953,212,162,2
932,177,203,2
972,184,237,2
1020,176,278,2
1038,159,253,2
978,139,279,2
847,100,275,2
813,91,240,2
979,37,220,2
979,5,229,2
903,35,229,2
940,59,242,2
966,102,237,2
1007,179,200,2
1066,230,241,2
886,258,260,2
895,306,234,2
942,314,254,2
850,296,257,2
858,330,196,2
944,387,194,2
984,376,110,2
1046,380,94,2
979,341,103,2
880,284,158,2
838,250,217,2
787,254,293,2
813,228,353,2
869,201,434,2
907,160,488,2
917,75,529,2
995,25,451,2
1076,48,495,2
938,47,455,2
960,174,360,2
1018,295,375,2
899,339,187,2
924,341,44,2
946,404,32,2
917,444,-31,2
808,374,-6,2
672,340,124,2
657,286,269,2
764,255,297,2
832,242,393,2
914,206,334,2
1039,117,356,2
1024,85,245,2
1027,79,182,2
1045,86,171,2
1028,121,215,2
958,109,210,2
980,50,221,2
1005,55,291,2
927,64,312,2
1015,56,286,2
1101,88,295,2
1117,131,277,2
1057,172,291,2
872,185,275,2
849,196,201,2
995,198,123,2
1079,187,126,2
961,194,85,2
875,202,77,2
907,232,116,2
908,225,143,2
930,201,156,2
883,192,206,2
954,224,262,2
973,246,306,2
895,254,387,2
808,200,368,2
821,130,310,2
978,70,232,2
1031,68,164,2
1095,74,143,2
974,117,159,2
842,166,228,2
834,118,256,2
904,103,285,2
821,86,333,2
890,119,311,2
946,181,282,2
1044,235,196,2
1075,228,105,2
958,221,114,2
887,178,118,2
919,125,76,2
993,95,113,2
1012,114,109,2
985,147,198,2
899,142,258,2
882,179,353,2
833,140,392,2
919,121,396,2
922,80,381,2
940,85,330,2
1040,68,294,2
1070,70,243,2
993,79,238,2
900,91,276,2
968,100,231,2
1023,108,209,2
1018,136,180,2
948,155,149,2
912,130,170,2
941,133,132,2
916,162,147,2
831,215,161,2
909,243,181,2
948,261,225,2
959,301,202,2
964,302,226,2
973,327,226,2
881,321,246,2
869,280,250,2
885,251,261,2
915,226,302,2
911,136,280,2
892,66,303,2
934,35,287,2
966,28,231,2
1017,40,192,2
900,67,187,2
772,106,199,2
826,161,211,2
892,210,253,2
881,273,261,2
898,301,242,2
985,281,209,2
1016,261,135,2
1026,262,85,2
1080,260,49,2
1037,216,56,2
971,188,104,2
1001,142,125,2
970,110,178,2
956,83,215,2
928,67,281,2
942,72,342,2
929,47,307,2
965,41,246,2
895,82,216,2
925,115,169,2
1032,156,161,2
980,184,188,2
884,175,139,2
855,173,162,2
1008,191,125,2
1184,195,93,2
1011,203,79,2
857,216,114,2
772,205,114,2
865,157,64,2
1058,123,62,2
1085,158,137,2
1068,163,245,2
1054,203,468,2
1104,545,636,2
1020,1069,571,2
877,1287,510,2
636,1270,126,2
661,1153,71,2
600,876,198,2
571,704,301,2
591,567,375,2
627,205,518,2
611,37,459,2
653,-153,438,2
641,-306,471,2
747,-331,300,2
930,24,297,2
996,-415,232,2
1260,456,392,2
1482,149,586,2
739,-164,853,2
670,-955,792,2
168,-390,761,2
889,335,1020,2
613,-426,718,2
361,-136,925,2
700,-151,944,2
342,-768,757,2
354,142,888,2
247,-894,650,2
255,-358,874,2
250,-527,608,2
943,-1006,281,2
1093,345,885,2
806,724,651,2
677,-29,802,2
672,-42,930,2
514,16,764,2
657,-134,532,2
767,-269,503,2
929,30,698,2
459,139,781,2
614,-40,924,2
700,-101,807,2
826,-199,782,2
436,-84,682,2
698,250,897,2
531,-97,818,2
447,10,892,2
503,-27,863,2
615,-167,883,2
550,-140,789,2
606,-142,663,2
747,-175,778,2
711,-285,512,2
537,-288,627,2
704,-248,631,2
698,-210,605,2
769,-80,616,2
709,-311,592,2
799,-226,597,2
666,-214,725,2
683,-145,833,2
783,-232,846,2
810,-68,872,2
671,-104,843,2
525,9,851,2
712,16,777,2
569,58,838,2
543,40,906,2
518,44,1013,2
490,-49,807,2
617,82,640,2
571,57,558,2
724,-146,763,2
789,-81,638,2
541,-215,789,2
596,-198,822,2
757,-187,514,2
755,-25,544,2
695,-138,723,2
669,-20,826,2
548,-72,881,2
604,-27,859,2
747,-17,680,2
860,-33,432,2
783,-33,649,2
691,-216,726,2
808,-342,768,2
772,-43,750,2
706,-3,730,2
699,10,701,2
699,-25,696,2
624,-22,567,2
923,-25,598,2
770,-64,532,2
893,-11,526,2
839,-196,657,2
625,-111,541,2
859,-219,679,2
817,-109,868,2
581,104,802,2
648,76,767,2
753,80,747,2
460,170,553,2
1075,-211,752,2
575,194,523,2
949,-190,519,2
576,-96,542,2
833,-127,561,2
876,-222,753,2
487,-88,538,2
668,-152,607,2
760,-258,701,2
846,-233,719,2
632,42,620,2
749,-27,697,2
799,-169,706,2
796,-165,679,2
840,-13,613,2
694,-120,763,2
565,-2,612,2
1023,-37,733,2
540,-22,838,2
692,-82,727,2
620,-59,707,2
861,86,759,2
497,-94,649,2
779,102,835,2
688,-105,651,2
560,-50,738,2
784,-17,826,2
508,-122,661,2
498,-14,688,2
926,-54,726,2
620,-46,711,2
721,-49,753,2
713,-169,592,2
688,-65,640,2
773,-184,606,2
740,-100,687,2
763,-155,748,2
767,-141,666,2
716,-86,691,2
686,-24,768,2
626,-65,722,2
