AccX [mg],AccY,AccZ,Ground Truth
-516,791,-158,2
-506,792,-163,2
-481,833,-197,2
-461,804,-191,2
-488,825,-197,2
-466,858,-221,2
-466,861,-204,2
-475,846,-205,2
-484,833,-198,2
-494,797,-210,2
-508,747,-230,2
-535,753,-266,2
-572,785,-291,2
-541,795,-341,2
-505,720,-361,2
-485,708,-364,2
-474,708,-394,2
-458,704,-405,2
-431,727,-428,2
-412,666,-423,2
-396,696,-425,2
-370,761,-439,2
-381,801,-415,2
-329,867,-444,2
-307,850,-410,2
-322,910,-416,2
-336,882,-403,2
-351,900,-391,2
-318,996,-439,2
-309,991,-418,2
-271,947,-429,2
-224,926,-437,2
-220,936,-419,2
-200,855,-417,2
-217,794,-409,2
-236,780,-423,2
-284,726,-424,2
-297,713,-482,2
-325,713,-509,2
-325,746,-603,2
-361,710,-638,2
-347,662,-730,2
-275,906,-593,2
-172,762,-540,2
-214,699,-476,2
-178,659,-436,2
-182,675,-488,2
-175,778,-529,2
-193,822,-558,2
-175,794,-602,2
-180,882,-622,2
-181,834,-609,2
-185,802,-569,2
-184,808,-585,2
-157,803,-625,2
-149,808,-592,2
-120,797,-551,2
-111,792,-516,2
-104,827,-526,2
-59,867,-506,2
-53,816,-456,2
-94,789,-442,2
-113,831,-464,2
-102,807,-469,2
-58,768,-460,2
4,776,-453,2
47,813,-471,2
56,815,-482,2
33,746,-456,2
0,672,-466,2
-7,662,-493,2
19,701,-535,2
73,790,-595,2
43,755,-566,2
104,874,-669,2
120,901,-648,2
163,939,-615,2
184,939,-606,2
182,911,-550,2
187,862,-505,2
197,848,-513,2
221,850,-510,2
246,870,-519,2
283,873,-531,2
288,826,-508,2
294,801,-454,2
281,715,-440,2
235,628,-430,2
209,692,-473,2
177,738,-509,2
168,790,-534,2
196,820,-557,2
221,837,-574,2
238,822,-553,2
268,809,-560,2
288,822,-526,2
311,797,-516,2
319,800,-482,2
322,813,-482,2
312,771,-459,2
292,750,-446,2
281,773,-453,2
287,793,-458,2
305,802,-448,2
292,764,-437,2
266,717,-412,2
250,701,-451,2
200,722,-444,2
181,737,-463,2
179,798,-523,2
190,835,-493,2
216,778,-480,2
305,688,-458,2
376,619,-423,2
472,599,-476,2
536,651,-579,2
550,739,-694,2
521,742,-756,2
492,690,-740,2
456,613,-633,2
473,615,-676,2
499,614,-662,2
497,558,-619,2
520,546,-635,2
478,505,-612,2
437,491,-554,2
419,520,-560,2
421,616,-489,2
434,611,-538,2
452,757,-497,2
495,688,-524,2
548,665,-497,2
635,736,-383,2
714,690,-234,2
742,574,-160,2
845,667,-139,2
1078,672,82,2
931,438,68,2
705,490,199,2
731,311,220,2
764,288,166,2
725,185,258,2
871,733,340,2
813,268,410,2
888,650,337,2
924,379,236,2
889,660,194,2
963,798,218,2
886,593,119,2
753,740,69,2
633,535,62,2
445,327,-40,2
600,278,193,2
833,595,305,2
818,396,219,2
880,517,122,2
916,523,90,2
927,588,56,2
798,360,95,2
907,693,7,2
890,818,-9,2
768,574,-30,2
852,620,85,2
758,254,157,2
788,121,47,2
947,239,-45,2
917,343,-97,2
805,289,-144,2
805,494,-139,2
807,932,-66,2
798,1016,145,2
775,880,71,2
872,498,-89,2
845,805,-388,2
810,-112,-34,2
861,64,43,2
832,314,21,2
891,618,39,2
918,832,-207,2
881,387,-50,2
781,418,53,2
824,604,86,2
872,624,21,2
935,472,271,2
969,672,242,2
850,284,258,2
755,273,351,2
758,562,227,2
765,473,325,2
852,381,278,2
795,533,429,2
749,450,435,2
733,467,493,2
707,254,428,2
674,446,497,2
604,608,447,2
585,223,538,2
745,246,502,2
833,329,551,2
1003,338,496,2
971,275,591,2
836,164,360,2
856,27,358,2
812,694,202,2
695,325,119,2
791,699,168,2
868,122,420,2
925,447,486,2
772,705,185,2
791,290,12,2
825,537,-52,2
836,316,-39,2
995,305,218,2
920,552,390,2
698,583,326,2
676,618,272,2
585,804,114,2
670,532,-122,2
880,435,-142,2
1109,507,243,2
1015,120,182,2
1026,419,26,2
883,217,263,2
890,594,-53,2
904,519,270,2
838,411,264,2
761,195,447,2
839,259,291,2
890,398,289,2
861,305,289,2
836,358,339,2
800,420,377,2
742,350,428,2
846,653,560,2
823,660,486,2
754,171,530,2
668,323,351,2
466,345,226,2
768,282,442,2
1044,486,321,2
978,466,322,2
1004,474,538,2
931,503,583,2
780,455,296,2
705,245,261,2
779,493,344,2
720,399,301,2
724,444,189,2
722,310,144,2
872,337,210,2
882,516,105,2
893,644,66,2
775,534,-234,2
918,432,17,2
852,505,-2,2
862,645,124,2
809,796,108,2
749,606,39,2
808,489,127,2
743,98,112,2
737,240,273,2
889,416,405,2
815,769,697,2
774,609,527,2
804,346,436,2
817,36,484,2
900,361,404,2
922,640,-7,2
793,305,-27,2
746,227,-195,2
837,747,-279,2
1014,326,23,2
991,665,10,2
948,465,20,2
899,246,51,2
786,471,-143,2
812,275,-12,2
763,454,220,2
778,551,205,2
1098,-164,551,2
1048,-159,240,2
980,193,31,2
1029,537,-23,2
973,344,93,2
968,284,177,2
939,516,321,2
680,844,575,2
440,752,652,2
417,717,555,2
426,566,372,2
539,645,441,2
619,567,360,2
679,366,151,2
849,255,229,2
955,402,2,2
1120,164,127,2
1160,249,316,2
1019,485,215,2
928,726,144,2
794,47,161,2
911,456,329,2
836,369,379,2
950,4,433,2
958,163,363,2
908,-6,341,2
969,157,218,2
883,108,300,2
908,120,246,2
924,46,309,2
896,76,352,2
806,-92,284,2
841,349,466,2
758,260,659,2
778,228,722,2
784,352,623,2
782,282,452,2
874,226,441,2
841,151,157,2
906,182,209,2
1021,184,138,2
926,233,289,2
903,487,443,2
874,773,522,2
804,661,513,2
786,319,314,2
930,360,289,2
885,629,465,2
770,434,300,2
803,395,258,2
1098,380,247,2
1236,204,103,2
1346,258,99,2
1283,493,75,2
1118,469,59,2
970,449,38,2
795,454,63,2
621,401,81,2
462,486,298,2
344,414,375,2
218,414,402,2
166,442,589,2
266,551,570,2
342,443,547,2
612,575,967,2
870,832,988,2
728,113,1070,2
667,-91,1167,2
772,91,559,2
698,659,127,2
765,815,302,2
830,264,314,2
771,464,291,2
794,440,277,2
756,589,548,2
823,568,292,2
778,602,423,2
724,522,312,2
645,538,447,2
859,409,44,2
874,486,257,2
892,292,91,2
846,352,112,2
858,279,39,2
850,219,88,2
905,290,10,2
879,234,98,2
933,334,-11,2
940,367,118,2
927,342,129,2
922,372,189,2
973,338,217,2
997,356,134,2
969,304,53,2
934,220,-24,2
952,230,-81,2
902,175,-57,2
941,295,-34,2
1007,360,10,2
975,476,110,2
961,412,106,2
938,387,28,2
850,410,-10,2
908,515,46,2
837,498,46,2
895,585,142,2
860,585,146,2
886,603,304,2
777,649,210,2
807,639,260,2
732,564,172,2
776,640,192,2
738,586,221,2
698,648,264,2
742,582,282,2
742,565,272,2
710,611,337,2
657,751,410,2
476,856,600,2
470,804,587,2
493,825,701,2
580,982,992,2
480,549,830,2
831,442,726,2
914,249,775,2
722,239,628,2
371,74,670,2
197,169,572,2
207,194,589,2
370,237,737,2
470,209,690,2
354,56,753,2
239,56,801,2
249,16,859,2
200,-13,710,2
162,153,485,2
90,69,638,2
826,1011,1456,2
1168,-925,558,2
-476,748,473,2
538,430,1534,2
103,36,878,2
373,115,1019,2
411,205,997,2
281,83,869,2
324,195,1022,2
484,143,895,2
345,117,857,2
338,135,919,2
422,93,967,2
455,247,982,2
210,79,761,2
291,262,992,2
261,287,938,2
89,323,989,2
95,102,1046,2
152,607,955,2
98,672,873,2
236,611,770,2
435,590,781,2
519,618,492,2
323,477,1048,2
271,565,618,2
416,458,764,2
383,654,697,2
311,361,798,2
-162,576,1267,2
314,266,830,2
231,47,636,2
811,681,1292,2
532,217,660,2
432,5,818,2
8,225,927,2
471,387,845,2
340,268,934,2
489,270,814,2
288,347,836,2
308,416,874,2
184,475,858,2
331,462,785,2
168,408,777,2
244,673,854,2
276,728,743,2
350,748,646,2
367,647,536,2
557,846,471,2
385,687,618,2
325,792,636,2
354,745,596,2
378,638,634,2
370,674,683,2
423,639,566,2
673,791,773,2
377,520,451,2
811,820,647,2
506,485,675,2
488,365,712,2
508,251,836,2
524,159,756,2
599,206,707,2
603,186,643,2
591,214,759,2
574,274,751,2
569,329,750,2
583,378,730,2
519,446,742,2
588,439,738,2
556,416,633,2
569,549,722,2
532,405,834,2
452,386,878,2
425,320,1001,2
477,300,1005,2
486,274,808,2
503,431,643,2
617,414,713,2
547,567,633,2
646,814,372,2
705,754,386,2
645,645,478,2
592,599,605,2
538,467,694,2
520,365,764,2
546,344,741,2
542,324,772,2
518,440,810,2
541,339,735,2
617,363,719,2
610,240,729,2
621,281,717,2
607,252,723,2
626,187,693,2
628,331,803,2
606,58,712,2
618,343,779,2
676,226,761,2
569,12,739,2
694,267,707,2
777,27,636,2
729,11,668,2
771,115,598,2
734,120,601,2
661,217,675,2
669,268,766,2
645,249,699,2
735,314,674,2
656,307,667,2
689,362,665,2
692,217,683,2
766,221,633,2
683,192,633,2
705,213,753,2
653,123,680,2
650,61,760,2
685,269,734,2
672,584,776,2
606,226,584,2
649,380,779,2
699,161,635,2
661,48,862,2
800,364,445,2
789,53,626,2
706,204,610,2
750,176,676,2
665,247,791,2
733,216,641,2
878,150,669,2
963,61,653,2
682,-6,495,2
883,-238,298,2
795,-164,191,2
847,-82,402,2
916,-170,457,2
892,-255,362,2
905,-169,297,2
925,-85,332,2
932,-49,429,2
881,-143,458,2
928,-76,497,2
871,-49,591,2
783,-41,588,2
908,-90,653,2
828,-177,549,2
839,-91,464,2
886,-148,402,2
916,-124,353,2
901,-150,302,2
896,-150,337,2
851,-202,478,2
808,-161,614,2
789,-115,606,2
873,-58,551,2
817,-11,562,2
846,-45,510,2
885,16,539,2
816,-36,549,2
813,-65,557,2
817,-81,558,2
802,-64,550,2
778,-72,595,2
779,-82,614,2
749,-70,625,2
740,-114,665,2
751,-106,609,2
752,-68,640,2
734,-89,664,2
734,-64,667,2
731,-63,692,2
716,-30,720,2
714,-20,710,2
737,20,682,2
753,100,631,2
783,76,616,2
786,33,609,2
783,0,654,2
769,-10,653,2
749,29,665,2
729,24,634,2
595,-68,797,2
717,-106,975,2
780,32,618,2
775,109,613,2
790,87,592,2
737,50,632,2
704,62,692,2
658,31,726,2
707,49,738,2
704,-17,704,2
644,-113,791,2
662,-19,881,2
703,-83,571,2
703,-22,719,2
718,18,651,2
733,26,664,2
702,57,689,2
657,94,642,2
639,99,790,2
563,59,832,2
604,333,817,2
644,160,861,2
640,72,779,2
631,267,738,2
662,159,708,2
645,166,766,2
623,124,749,2
624,98,799,2
592,27,810,2
555,98,807,2
528,86,873,2
541,162,794,2
557,207,788,2
522,244,796,2
510,228,860,2
480,251,873,2
529,312,818,2
593,330,756,2
593,276,766,2
529,284,835,2
502,241,843,2
514,266,802,2
550,244,776,2
538,255,794,2
482,324,793,2
485,353,775,2
521,270,807,2
528,280,831,2
548,302,812,2
583,268,785,2
598,235,800,2
476,271,843,2
446,342,837,2
371,376,819,2
366,290,952,2
397,359,1002,2
346,478,1006,2
338,268,500,2
482,669,295,2
697,1048,-127,2
586,779,192,2
686,717,318,2
580,667,127,2
518,576,92,2
420,869,332,2
355,744,488,2
395,821,388,2
576,830,242,2
808,862,105,2
659,608,212,2
594,714,209,2
543,740,270,2
593,736,346,2
609,778,353,2
589,756,335,2
604,747,321,2
633,706,330,2
674,605,313,2
718,571,337,2
686,512,343,2
695,611,364,2
674,605,328,2
664,659,359,2
658,685,344,2
672,682,357,2
692,646,361,2
709,590,366,2
718,546,358,2
735,493,372,2
729,469,348,2
735,480,321,2
704,574,320,2
687,622,344,2
666,666,328,2
675,667,309,2
683,653,306,2
694,643,308,2
694,622,286,2
686,607,282,2
699,599,280,2
706,619,306,2
701,623,306,2
699,626,323,2
684,601,346,2
686,617,380,2
697,582,376,2
711,568,355,2
706,587,360,2
686,611,374,2
694,602,382,2
696,586,369,2
716,576,360,2
709,581,354,2
728,548,345,2
733,536,341,2
731,554,357,2
729,520,356,2
741,529,369,2
740,524,372,2
730,514,397,2
723,548,395,2
721,553,394,2
726,533,379,2
741,514,391,2
733,505,391,2
735,525,396,2
738,494,394,2
741,485,422,2
746,491,421,2
746,469,414,2
756,443,419,2
757,418,424,2
754,430,414,2
750,466,432,2
739,503,418,2
719,519,430,2
731,524,420,2
730,512,428,2
736,523,419,2
733,514,417,2
741,509,411,2
740,478,406,2
746,474,405,2
753,464,416,2
757,457,421,2
758,442,423,2
749,489,430,2
749,466,426,2
755,471,422,2
755,460,416,2
748,471,410,2
745,477,417,2
742,486,411,2
741,502,405,2
754,491,395,2
772,492,391,2
787,478,370,2
779,498,367,2
761,511,384,2
746,519,394,2
742,534,399,2
746,535,396,2
746,517,387,2
733,512,397,2
720,505,411,2
721,524,416,2
711,535,414,2
707,555,416,2
712,535,402,2
716,537,404,2
721,532,411,2
727,516,405,2
734,514,406,2
729,514,398,2
726,527,398,2
718,530,413,2
717,541,408,2
722,533,413,2
724,525,409,2
725,511,403,2
734,503,406,2
727,513,416,2
724,510,407,2
723,522,409,2
716,529,413,2
716,540,410,2
719,536,403,2
719,540,404,2
719,536,400,2
719,533,397,2
718,537,399,2
719,528,399,2
710,537,412,2
710,534,418,2
713,544,411,2
709,549,399,2
705,540,406,2
711,551,406,2
706,551,399,2
705,549,396,2
705,558,394,2
704,558,397,2
696,564,387,2
694,567,391,2
693,571,400,2
692,575,403,2
695,564,404,2
702,564,395,2
698,554,408,2
704,552,403,2
704,555,405,2
706,541,418,2
704,546,424,2
703,547,416,2
707,529,422,2
711,535,428,2
709,518,425,2
712,519,423,2
719,513,423,2
716,519,430,2
712,539,427,2
710,536,426,2
716,517,428,2
720,508,421,2
727,491,428,2
731,486,434,2
729,484,448,2
731,495,451,2
724,486,438,2
731,485,439,2
730,473,442,2
728,468,458,2
724,488,457,2
722,498,451,2
734,488,450,2
698,537,408,2
691,547,439,2
680,547,465,2
696,496,466,2
741,497,447,2
722,466,485,2
713,476,462,2
689,529,446,2
648,581,478,2
655,599,497,2
666,483,544,2
688,438,482,2
746,474,479,2
762,518,446,2
721,579,449,2
680,586,480,2
638,514,519,2
665,526,513,2
690,554,512,2
703,576,502,2
655,590,524,2
627,521,544,2
598,514,547,2
551,568,530,2
642,547,458,2
484,671,648,2
691,341,439,2
638,508,558,2
613,586,518,2
616,473,501,2
539,584,501,2
711,321,432,2
781,669,540,2
565,474,465,2
712,733,462,2
684,473,488,2
653,576,745,2
499,505,766,2
512,456,594,2
550,887,536,2
520,429,701,2
474,392,740,2
425,622,680,2
661,936,598,2
759,139,474,2
930,97,780,2
199,678,798,2
334,767,613,2
600,168,722,2
1013,-2,521,2
865,262,375,2
823,725,551,2
594,538,668,2
615,613,612,2
674,395,580,2
732,429,582,2
725,396,556,2
742,432,483,2
709,476,540,2
701,564,524,2
730,396,544,2
754,505,535,2
568,278,465,2
708,454,678,2
695,429,974,2
510,87,608,2
560,564,616,2
1093,623,195,2
735,935,966,2
85,884,1487,2
332,450,879,2
313,570,599,2
407,502,651,2
431,561,615,2
284,515,727,2
119,578,705,2
211,672,744,2
223,465,708,2
246,369,601,2
200,267,552,2
174,349,592,2
114,398,602,2
118,647,685,2
174,620,658,2
198,565,611,2
267,656,627,2
211,693,690,2
247,922,722,2
253,935,700,2
196,910,726,2
176,929,784,2
174,912,851,2
234,809,1014,2
384,764,1070,2
483,614,1107,2
571,475,1135,2
589,381,1135,2
581,282,1149,2
557,259,1122,2
459,172,1080,2
383,79,976,2
258,-88,884,2
199,-179,784,2
80,-238,683,2
29,-294,628,2
-67,-431,572,2
-79,-492,573,2
-102,-519,585,2
-97,-622,603,2
-112,-714,610,2
-92,-711,632,2
-67,-701,651,2
-57,-685,689,2
-54,-712,699,2
-55,-712,694,2
-68,-709,693,2
-72,-743,709,2
-84,-727,711,2
-82,-698,728,2
-91,-721,717,2
-101,-729,703,2
-103,-733,715,2
-100,-715,719,2
-110,-750,718,2
-91,-713,723,2
-94,-720,714,2
-95,-740,713,2
-83,-725,708,2
-86,-738,709,2
-78,-735,713,2
-102,-751,702,2
-94,-739,703,2
-93,-731,707,2
-87,-742,699,2
-88,-739,690,2
-98,-747,687,2
-103,-736,690,2
-102,-745,692,2
-100,-754,699,2
-98,-748,704,2
-105,-750,696,2
-108,-747,697,2
-104,-742,696,2
-113,-758,690,2
-108,-748,695,2
-112,-745,694,2
-109,-757,698,2
-111,-745,697,2
-109,-743,699,2
-108,-743,700,2
-104,-762,697,2
-109,-748,683,2
-111,-754,688,2
-109,-756,691,2
-110,-756,695,2
-100,-754,700,2
-93,-762,705,2
-94,-756,692,2
-89,-743,683,2
-104,-770,670,2
-104,-756,658,2
-116,-753,663,2
-116,-767,668,2
-116,-768,671,2
-125,-768,681,2
-132,-772,678,2
-135,-770,678,2
-135,-768,674,2
-130,-771,676,2
-118,-768,671,2
-101,-761,674,2
-98,-781,664,2
-95,-771,659,2
-99,-781,651,2
-105,-799,643,2
-105,-788,640,2
-109,-793,640,2
-112,-791,641,2
-115,-777,639,2
-122,-793,641,2
-121,-779,647,2
-122,-792,648,2
-119,-788,647,2
-124,-797,650,2
-123,-788,642,2
-122,-799,640,2
-122,-799,634,2
-122,-805,635,2
-127,-811,630,2
-135,-800,627,2
-132,-803,623,2
-127,-802,621,2
-121,-804,613,2
-114,-808,619,2
-116,-800,621,2
-124,-813,619,2
-123,-809,622,2
-125,-802,621,2
-125,-808,623,2
-126,-809,621,2
-125,-812,621,2
-123,-801,622,2
-128,-812,620,2
-123,-805,618,2
-126,-804,617,2
-125,-807,614,2
-140,-810,603,2
-149,-796,583,2
-171,-779,542,2
-231,-744,442,2
-309,-654,314,2
-521,-522,37,2
-740,-341,-195,2
-736,-184,-175,2
-540,289,249,2
-11,638,756,2
455,646,1055,2
939,811,924,2
1174,344,728,2
1571,1615,864,2
1726,207,1445,2
743,918,1282,2
323,774,558,2
186,716,405,2
526,1070,703,2
415,470,655,2
474,621,415,2
285,583,630,2
344,809,715,2
127,555,816,2
158,842,879,2
223,431,843,2
313,472,820,2
379,459,800,2
467,397,628,2
439,670,765,2
455,606,695,2
511,538,604,2
408,610,603,2
233,646,613,2
135,748,775,2
72,687,998,2
48,674,838,2
172,699,759,2
272,616,726,2
336,650,693,2
167,575,737,2
92,712,819,2
185,647,800,2
192,709,806,2
157,524,764,2
216,677,703,2
357,670,750,2
178,560,714,2
425,561,617,2
463,616,619,2
650,515,553,2
586,599,554,2
522,556,553,2
519,916,472,2
681,538,480,2
610,780,491,2
584,564,561,2
498,679,536,2
508,646,611,2
405,550,620,2
524,563,650,2
527,560,675,2
543,578,567,2
723,620,421,2
575,697,399,2
520,796,523,2
271,682,690,2
411,576,730,2
437,397,678,2
431,543,743,2
405,526,625,2
351,810,617,2
349,704,593,2
278,751,706,2
438,661,627,2
528,563,685,2
382,504,818,2
330,439,820,2
392,435,682,2
515,481,619,2
564,509,652,2
541,500,652,2
487,579,752,2
422,496,749,2
405,515,755,2
455,528,745,2
556,541,715,2
591,525,706,2
648,353,706,2
721,160,525,2
547,107,472,2
478,371,567,2
337,562,584,2
77,1453,695,2
199,1352,736,2
244,842,651,2
349,653,709,2
469,601,711,2
504,615,625,2
466,480,576,2
467,565,529,2
496,706,528,2
429,687,561,2
410,651,508,2
439,756,526,2
400,711,512,2
340,531,750,2
366,264,1023,2
297,303,806,2
339,152,760,2
419,-183,684,2
358,179,658,2
705,-116,667,2
1090,621,1599,2
424,-18,833,2
580,186,686,2
586,325,727,2
618,314,754,2
628,104,736,2
588,151,777,2
562,198,848,2
563,167,832,2
567,162,829,2
548,116,853,2
557,89,844,2
596,119,802,2
593,97,777,2
573,101,807,2
538,103,841,2
524,105,867,2
507,124,856,2
500,138,850,2
474,156,873,2
453,80,843,2
473,77,909,2
471,12,934,2
459,72,927,2
457,59,900,2
476,87,875,2
505,89,844,2
520,52,821,2
490,68,905,2
458,108,903,2
474,75,932,2
556,-92,842,2
548,16,831,2
516,147,861,2
540,59,839,2
559,11,864,2
539,49,851,2
573,-21,807,2
580,-53,793,2
602,-75,833,2
578,1,785,2
553,67,836,2
580,14,879,2
620,15,855,2
622,24,786,2
547,19,749,2
567,50,815,2
483,49,824,2
333,-52,860,2
380,-51,1077,2
394,-203,1057,2
328,-101,935,2
274,146,1028,2
303,79,1006,2
288,65,935,2
254,182,934,2
206,160,940,2
164,167,1059,2
164,133,1019,2
158,167,973,2
82,190,922,2
148,228,1052,2
138,121,960,2
37,33,1074,2
16,6,1068,2
20,-25,994,2
-9,74,1036,2
-76,57,1040,2
37,21,1015,2
-176,101,869,2
-30,95,1212,2
734,-327,850,2
554,594,1175,2
593,367,949,2
180,199,940,2
294,223,948,2
261,393,997,2
438,330,976,2
551,268,878,2
511,103,791,2
642,145,760,2
781,-136,983,2
710,-53,973,2
487,-169,716,2
571,610,599,2
429,281,350,2
331,460,915,2
491,358,838,2
440,-4,893,2
325,112,918,2
263,93,973,2
79,-171,1006,2
-153,26,1285,2
212,95,1252,2
-20,317,1022,2
754,361,965,2
1081,368,547,2
610,403,814,2
354,250,1012,2
424,262,708,2
516,333,784,2
434,345,863,2
588,392,667,2
332,118,834,2
637,156,880,2
636,150,698,2
578,167,756,2
751,301,697,2
623,288,732,2
659,327,681,2
634,270,687,2
611,291,652,2
683,272,765,2
583,181,680,2
651,212,692,2
613,200,853,2
655,172,729,2
628,192,799,2
633,135,756,2
685,168,734,2
653,111,687,2
674,195,674,2
735,155,692,2
776,122,615,2
749,46,566,2
892,227,559,2
788,310,582,2
758,265,525,2
698,267,603,2
734,311,581,2
699,247,622,2
674,165,652,2
744,208,671,2
711,240,700,2
688,229,748,2
666,223,673,2
699,190,689,2
705,234,677,2
712,219,631,2
716,229,660,2
625,360,722,2
608,245,641,2
721,209,592,2
806,265,516,2
881,333,597,2
691,298,699,2
714,376,676,2
637,287,683,2
681,341,682,2
637,318,695,2
664,269,689,2
703,273,648,2
724,304,617,2
698,389,636,2
670,399,637,2
679,393,630,2
679,345,643,2
664,385,661,2
645,376,694,2
647,333,690,2
602,338,713,2
609,337,719,2
625,292,712,2
597,293,724,2
631,274,718,2
643,242,715,2
662,309,722,2
678,298,790,2
635,206,765,2
620,151,733,2
609,92,774,2
551,82,773,2
593,259,834,2
587,172,755,2
632,144,711,2
661,235,716,2
574,242,763,2
728,76,586,2
778,132,613,2
825,156,558,2
786,222,603,2
718,124,512,2
799,106,563,2
821,14,569,2
854,-32,519,2
849,-94,574,2
815,-205,554,2
875,-110,476,2
926,-161,496,2
891,-91,523,2
884,44,467,2
839,18,439,2
801,97,630,2
751,94,626,2
806,124,584,2
761,8,557,2
872,128,450,2
824,190,534,2
746,228,666,2
693,236,667,2
729,177,681,2
758,69,614,2
848,-73,587,2
801,-2,608,2
785,33,595,2
713,200,691,2
731,297,684,2
671,285,640,2
799,214,564,2
849,168,478,2
868,245,571,2
764,246,606,2
758,214,602,2
699,197,687,2
788,170,724,2
786,6,519,2
881,61,640,2
777,4,656,2
742,-38,627,2
728,-61,634,2
758,23,627,2
806,144,620,2
693,211,634,2
652,145,721,2
742,48,666,2
835,-63,528,2
801,-200,540,2
787,-115,580,2
764,-160,669,2
713,-143,714,2
740,-161,671,2
772,-152,643,2
739,-177,666,2
802,-136,597,2
711,-140,684,2
806,-78,623,2
704,-80,608,2
793,-136,626,2
800,-121,603,2
784,-161,579,2
796,-185,583,2
760,-136,596,2
785,-136,603,2
771,-141,596,2
795,-195,608,2
833,-203,545,2
804,-292,564,2
800,-161,538,2
834,-85,606,2
771,-191,563,2
748,-166,623,2
755,-144,647,2
748,-124,664,2
733,-125,680,2
756,-129,627,2
725,-178,661,2
791,-192,657,2
744,-132,522,2
823,-129,569,2
755,-189,570,2
824,-197,559,2
809,-258,559,2
843,-300,542,2
872,-301,467,2
845,-323,463,2
845,-226,463,2
805,-171,448,2
851,-247,531,2
796,-194,536,2
809,-292,485,2
845,-294,510,2
835,-254,452,2
844,-254,462,2
803,-271,517,2
815,-205,600,2
788,-221,544,2
831,-242,539,2
806,-217,520,2
810,-268,491,2
799,-268,533,2
779,-267,538,2
802,-292,561,2
810,-260,531,2
809,-246,517,2
805,-272,475,2
832,-166,553,2
787,-265,495,2
800,-264,524,2
709,-394,545,2
947,-296,592,2
873,-126,318,2
867,-278,589,2
821,-200,352,2
929,-220,285,2
869,-415,307,2
817,-386,215,2
887,-387,53,2
945,-379,-46,2
919,-421,-17,2
941,-534,59,2
878,-496,188,2
853,-445,226,2
838,-364,316,2
840,-287,432,2
831,-312,426,2
846,-324,399,2
845,-376,348,2
873,-416,285,2
875,-388,298,2
867,-413,318,2
865,-384,336,2
848,-391,332,2
873,-393,290,2
844,-458,284,2
852,-436,310,2
884,-381,247,2
877,-405,227,2
882,-392,265,2
867,-377,239,2
823,-321,384,2
810,-260,519,2
903,-206,385,2
843,-177,544,2
803,-200,597,2
879,-200,576,2
840,-182,572,2
840,-181,533,2
833,-205,526,2
842,-228,465,2
860,-254,442,2
858,-243,427,2
866,-261,424,2
862,-232,435,2
870,-245,444,2
870,-228,445,2
894,-214,420,2
866,-252,392,2
829,-270,434,2
844,-278,469,2
867,-273,446,2
870,-261,408,2
874,-178,421,2
847,-223,474,2
828,-213,548,2
828,-129,507,2
815,-255,540,2
801,-204,515,2
856,-202,489,2
747,-251,566,2
807,-157,652,2
711,-223,567,2
764,-36,825,2
615,-167,502,2
685,85,899,2
538,-169,536,2
407,46,921,2
387,-336,1100,2
355,-114,892,2
233,-66,1033,2
138,-148,1413,2
-21,-127,1357,2
196,69,670,2
528,752,-112,2
154,838,258,2
-74,1112,59,2
-297,1194,72,2
-447,1399,85,2
-250,1391,-67,2
198,1293,-116,2
274,1168,14,2
172,730,-43,2
260,1158,-78,2
319,718,-120,2
453,751,-35,2
100,612,268,2
308,919,496,2
494,835,347,2
290,629,554,2
679,640,554,2
542,545,471,2
974,501,97,2
875,597,279,2
418,901,509,2
752,755,184,2
826,799,180,2
377,568,394,2
591,890,654,2
455,263,506,2
922,416,648,2
812,274,585,2
757,405,429,2
624,433,298,2
785,379,64,2
966,296,277,2
819,10,138,2
1219,572,173,2
1142,647,299,2
966,949,317,2
407,620,303,2
463,1131,563,2
401,1110,367,2
91,975,413,2
485,787,101,2
379,843,104,2
109,716,759,2
668,750,420,2
427,572,327,2
553,682,213,2
429,664,276,2
358,850,492,2
828,470,358,2
652,355,615,2
743,442,465,2
767,783,313,2
651,898,248,2
684,960,211,2
460,805,527,2
522,975,633,2
447,406,382,2
684,302,693,2
753,2,595,2
907,250,294,2
752,578,355,2
744,618,293,2
637,808,513,2
576,742,501,2
484,684,494,2
564,600,538,2
589,509,489,2
812,474,547,2
523,543,556,2
634,344,508,2
729,604,501,2
706,657,363,2
623,605,409,2
749,770,484,2
632,594,523,2
734,494,497,2
645,610,540,2
575,581,584,2
639,440,506,2
674,423,510,2
637,212,505,2
760,326,435,2
859,405,477,2
830,341,562,2
817,480,512,2
654,498,486,2
753,424,452,2
728,466,512,2
714,537,371,2
838,491,380,2
702,487,478,2
586,802,646,2
660,672,493,2
564,789,554,2
635,614,507,2
659,606,386,2
643,461,456,2
730,303,364,2
870,417,440,2
960,493,372,2
832,476,586,2
790,224,377,2
937,315,347,2
872,230,311,2
749,283,249,2
339,519,403,2
365,484,613,2
613,670,471,2
540,473,651,2
698,571,736,2
641,490,776,2
714,531,591,2
653,404,533,2
777,632,508,2
697,303,487,2
799,311,333,2
738,572,448,2
567,380,570,2
500,778,835,2
458,683,629,2
604,539,527,2
610,369,554,2
672,28,689,2
615,201,720,2
694,314,611,2
694,270,620,2
609,349,574,2
815,259,497,2
861,383,440,2
830,532,494,2
749,478,535,2
527,440,711,2
660,475,787,2
749,347,660,2
840,505,564,2
898,544,520,2
748,410,523,2
779,393,481,2
647,401,620,2
746,493,430,2
849,505,460,2
783,556,502,2
762,631,502,2
675,721,618,2
557,823,690,2
701,941,649,2
732,796,588,2
805,644,420,2
766,458,173,2
689,278,216,2
670,146,198,2
618,282,262,2
569,354,351,2
593,381,452,2
594,403,415,2
649,516,428,2
687,463,399,2
749,319,293,2
821,250,257,2
832,220,280,2
798,190,222,2
763,248,290,2
886,224,358,2
917,192,472,2
1030,194,521,2
1079,145,498,2
1125,115,492,2
1163,115,359,2
1193,152,338,2
1056,237,261,2
1062,327,297,2
1015,367,284,2
905,302,332,2
857,448,366,2
1065,877,405,2
1068,843,820,2
1171,877,832,2
1167,614,634,2
1095,330,611,2
891,-114,402,2
668,-341,121,2
747,-362,28,2
838,-289,-106,2
916,-286,-175,2
1628,-621,192,2
680,369,771,2
896,167,735,2
925,93,665,2
518,100,700,2
654,336,846,2
577,284,943,2
749,348,827,2
834,283,748,2
815,381,613,2
767,176,437,2
696,85,546,2
609,227,676,2
475,392,787,2
469,351,986,2
487,405,882,2
505,486,829,2
613,332,617,2
645,135,616,2
664,63,607,2
678,165,693,2
656,-59,641,2
682,76,556,2
667,-200,535,2
595,-309,456,2
743,-288,506,2
683,-528,635,2
1140,399,813,2
794,-60,559,2
743,-47,438,2
1221,63,406,2
840,-442,390,2
846,-243,518,2
795,-350,347,2
853,-200,427,2
923,-58,346,2
858,39,162,2
948,4,256,2
819,-61,326,2
932,-215,339,2
810,-289,79,2
1067,-264,112,2
1121,-252,123,2
1177,-242,267,2
1193,-160,18,2
879,8,176,2
844,-78,126,2
827,-35,18,2
874,28,224,2
1019,-150,452,2
1188,-20,394,2
1296,-131,349,2
1051,86,402,2
987,127,509,2
696,54,554,2
617,129,481,2
835,127,270,2
746,-52,481,2
1028,59,437,2
1022,-91,626,2
1023,78,641,2
680,-105,629,2
676,28,414,2
931,11,330,2
533,208,470,2
903,81,722,2
838,216,640,2
1014,108,747,2
1010,80,514,2
881,77,504,2
712,-148,432,2
736,-272,303,2
789,-110,200,2
814,-192,634,2
719,93,643,2
811,50,1040,2
851,44,587,2
694,-114,580,2
827,-169,337,2
980,-104,230,2
802,-205,367,2
676,-82,516,2
827,-80,601,2
817,-101,675,2
906,54,427,2
841,106,543,2
826,229,664,2
893,121,825,2
734,-103,827,2
911,-29,650,2
792,-126,559,2
833,-197,475,2
915,-152,383,2
873,-1,289,2
1066,89,285,2
991,150,459,2
919,116,702,2
703,182,838,2
755,22,807,2
807,-55,762,2
732,197,723,2
349,150,497,2
648,608,1146,2
1088,-229,670,2
334,469,785,2
528,99,915,2
605,209,683,2
523,190,647,2
549,162,886,2
704,109,633,2
708,-34,538,2
789,117,645,2
787,120,653,2
684,69,798,2
631,14,745,2
659,31,708,2
951,71,388,2
864,108,613,2
866,27,464,2
710,40,668,2
890,-25,615,2
880,-12,559,2
493,-72,628,2
633,54,906,2
529,-27,862,2
680,-3,689,2
691,-2,622,2
802,-25,536,2
820,28,586,2
673,22,650,2
652,154,794,2
739,139,666,2
755,184,719,2
701,202,730,2
786,156,683,2
663,59,695,2
804,112,684,2
727,68,625,2
880,89,587,2
769,88,613,2
764,112,687,2
732,230,781,2
636,158,659,2
901,122,682,2
754,177,781,2
728,103,602,2
835,216,592,2
735,132,697,2
597,94,871,2
751,221,683,2
763,106,634,2
663,269,703,2
517,-10,730,2
487,151,955,2
625,52,800,2
623,-10,803,2
619,-46,766,2
588,30,743,2
615,-22,653,2
569,63,806,2
708,56,985,2
491,152,1063,2
633,53,737,2
616,-168,724,2
597,-73,731,2
548,20,716,2
629,-162,810,2
538,-122,735,2
577,-128,711,2
655,-61,732,2
689,14,751,2
624,-45,720,2
612,-21,795,2
689,-58,860,2
614,-17,817,2
717,104,713,2
737,83,768,2
758,3,819,2
608,91,840,2
631,71,853,2
644,-19,817,2
535,101,788,2
691,40,815,2
581,-13,756,2
537,131,859,2
717,-95,843,2
600,-30,746,2
543,7,838,2
627,10,774,2
631,-83,658,2
534,-1,808,2
537,20,828,2
540,-30,835,2
544,21,850,2
576,-9,835,2
538,5,754,2
509,67,756,2
690,-34,856,2
686,-36,752,2
533,-9,824,2
471,-37,806,2
580,-80,757,2
593,-64,733,2
658,-175,625,2
745,-202,757,2
694,-218,717,2
705,-193,764,2
468,-137,639,2
621,-138,813,2
774,-113,872,2
644,-25,761,2
558,-50,803,2
446,67,1076,2
559,86,938,2
324,57,926,2
551,-62,978,2
745,9,618,2
605,-62,698,2
395,-64,926,2
325,-34,938,2
482,-100,750,2
647,-190,819,2
748,95,698,2
676,4,680,2
602,-77,788,2
624,-58,833,2
538,5,868,2
523,66,980,2
472,-53,866,2
424,-107,946,2
462,-135,783,2
599,-46,700,2
640,-6,726,2
678,-44,885,2
442,-19,894,2
450,14,956,2
513,19,835,2
570,-84,754,2
558,-17,784,2
611,53,790,2
504,-128,743,2
651,79,876,2
625,-1,848,2
451,-195,892,2
631,-97,766,2
612,-29,725,2
646,49,767,2
593,-17,842,2
485,-46,784,2
545,47,843,2
730,-102,752,2
601,-94,840,2
575,-194,785,2
570,26,771,2
657,-11,745,2
685,-85,882,2
587,-38,803,2
564,-27,763,2
667,91,845,2
617,-64,740,2
647,-54,750,2
751,-30,781,2
656,-60,791,2
545,22,894,2
548,-69,760,2
602,32,711,2
771,-169,768,2
547,-81,846,2
478,62,900,2
456,64,923,2
748,-89,803,2
666,22,766,2
558,35,840,2
490,-57,738,2
767,-76,732,2
610,-257,620,2
655,-86,748,2
667,-268,689,2
752,-211,829,2
832,62,763,2
419,-113,813,2
634,-105,988,2
441,-87,746,2
650,-107,953,2
566,108,722,2
621,-40,849,2
617,-50,818,2
509,-17,877,2
439,-93,739,2
573,-45,834,2
570,-65,764,2
570,42,640,2
590,-96,715,2
839,-174,1022,2
532,-58,804,2
529,-34,910,2
357,-15,793,2
712,-17,855,2
520,-93,828,2
386,-43,912,2
455,33,888,2
596,-172,923,2
631,8,902,2
335,8,893,2
642,-239,734,2
410,-46,701,2
921,-168,950,2
570,-157,824,2
497,-68,1074,2
521,-13,783,2
763,-179,711,2
700,-199,667,2
485,-186,661,2
490,-269,628,2
563,-284,658,2
924,-210,621,2
831,-108,723,2
465,-98,787,2
258,-204,859,2
558,-314,669,2
577,-358,813,2
652,-1,853,2
754,122,695,2
700,-9,1039,2
738,3,920,2
314,105,1112,2
511,99,917,2
501,180,978,2
679,154,789,2
767,213,765,2
756,-178,590,2
834,-50,654,2
572,-231,809,2
469,-294,779,2
475,-104,984,2
456,-361,935,2
457,-163,933,2
573,6,752,2
495,-20,813,2
450,155,730,2
467,81,731,2
568,-276,413,2
700,238,627,2
797,-70,707,2
670,-291,639,2
600,-33,722,2
773,-68,661,2
684,-88,707,2
695,-116,684,2
697,-39,566,2
809,-148,678,2
731,-29,773,2
803,19,923,2
750,-63,688,2
817,51,634,2
752,-14,780,2
672,44,816,2
683,15,605,2
686,165,460,2
753,127,553,2
739,108,792,2
746,259,936,2
793,224,772,2
577,51,939,2
550,113,909,2
481,160,741,2
558,280,496,2
731,124,604,2
717,205,915,2
717,-81,704,2
761,9,582,2
657,42,598,2
637,-95,539,2
554,130,589,2
649,-128,621,2
758,-143,586,2
771,0,618,2
681,-109,795,2
710,79,801,2
688,31,753,2
682,19,794,2
689,2,633,2
710,9,670,2
802,193,860,2
817,122,731,2
729,-97,754,2
913,-63,670,2
521,-12,741,2
424,499,604,2
1079,193,357,2
160,-331,1118,2
1140,61,721,2
234,190,666,2
1268,64,458,2
507,-49,1448,2
454,130,811,2
898,-95,206,2
335,241,569,2
1065,126,497,2
350,150,1004,2
1040,12,682,2
379,-164,1111,2
937,48,309,2
312,56,804,2
907,336,382,2
546,-124,822,2
821,201,895,2
620,-1,895,2
518,136,734,2
831,130,474,2
604,-27,711,2
902,0,709,2
526,39,826,2
759,262,605,2
613,89,621,2
765,136,457,2
641,213,610,2
553,96,832,2
719,174,795,2
599,121,938,2
651,56,858,2
719,282,685,2
658,102,673,2
557,98,551,2
720,39,471,2
672,-154,585,2
907,221,834,2
507,-160,924,2
643,119,667,2
939,56,810,2
373,291,773,2
873,58,478,2
678,181,611,2
647,153,856,2
687,34,838,2
710,33,649,2
704,49,749,2
733,166,554,2
662,168,806,2
831,221,654,2
693,116,787,2
554,366,584,2
727,315,525,2
748,301,709,2
729,115,1007,2
512,75,705,2
641,374,375,2
707,5,441,2
837,183,1015,2
705,324,823,2
569,329,756,2
695,302,368,2
620,274,757,2
552,155,883,2
719,294,168,2
785,246,688,2
660,54,688,2
817,219,463,2
633,50,725,2
487,6,1012,2
991,375,578,2
514,317,589,2
891,196,1010,2
513,245,581,2
652,324,639,2
666,103,312,2
782,108,607,2
928,367,716,2
478,93,746,2
907,212,658,2
569,-6,534,2
959,4,594,2
554,32,628,2
1168,317,729,2
471,252,942,2
844,402,767,2
370,364,975,2
753,411,292,2
606,201,615,2
927,318,567,2
620,332,637,2
764,154,597,2
656,430,534,2
679,106,739,2
625,176,596,2
859,239,771,2
383,72,590,2
992,248,627,2
536,150,612,2
985,244,680,2
533,270,838,2
838,309,564,2
434,233,647,2
986,356,434,2
486,248,722,2
933,360,764,2
503,510,657,2
896,236,646,2
462,269,543,2
831,167,519,2
646,68,594,2
779,40,559,2
786,61,711,2
680,336,732,2
726,407,787,2
560,296,686,2
689,241,542,2
678,237,588,2
704,240,632,2
904,321,644,2
647,284,743,2
726,293,746,2
645,182,619,2
680,140,563,2
709,228,535,2
736,210,570,2
698,429,893,2
501,109,832,2
617,153,760,2
609,136,722,2
634,148,806,2
644,-72,830,2
717,-12,592,2
603,159,738,2
626,172,806,2
615,157,825,2
635,-46,621,2
727,135,761,2
870,-129,651,2
719,-131,648,2
460,-212,704,2
674,25,594,2
565,87,713,2
970,-295,555,2
670,-75,649,2
726,122,768,2
663,185,799,2
695,50,656,2
706,52,681,2
641,76,725,2
865,-13,671,2
573,144,828,2
652,47,843,2
688,105,659,2
798,10,539,2
594,263,887,2
723,252,854,2
536,220,801,2
649,116,545,2
625,-60,618,2
895,-89,626,2
569,-93,613,2
828,157,693,2
525,67,796,2
561,257,915,2
590,287,765,2
828,-34,663,2
573,89,759,2
499,90,696,2
960,50,549,2
642,-54,818,2
404,-78,972,2
811,53,685,2
724,-169,610,2
518,37,622,2
605,131,721,2
675,161,553,2
772,-91,615,2
458,-335,563,2
1169,-121,638,2
806,-21,1007,2
710,-365,1070,2
333,148,766,2
998,-55,247,2
235,24,829,2
1113,71,482,2
656,11,989,2
591,333,869,2
747,129,1077,2
657,82,547,2
768,85,695,2
391,86,819,2
798,187,428,2
665,-123,707,2
810,-146,685,2
508,166,929,2
696,253,835,2
509,157,827,2
509,88,905,2
633,231,586,2
714,16,361,2
796,25,689,2
615,-3,728,2
713,86,870,2
803,-181,547,2
557,-68,734,2
621,-277,630,2
640,-53,531,2
726,117,801,2
963,-156,792,2
475,70,1045,2
895,-3,734,2
346,-75,785,2
984,-111,352,2
405,74,792,2
1086,-124,465,2
415,142,955,2
800,152,894,2
460,160,931,2
567,211,767,2
495,217,687,2
771,43,473,2
765,-103,544,2
796,48,862,2
589,167,622,2
907,21,891,2
562,-31,934,2
492,-113,728,2
493,109,375,2
884,123,362,2
688,-63,878,2
859,-176,780,2
705,-73,857,2
584,-8,851,2
710,-99,609,2
737,-42,514,2
705,96,653,2
591,17,674,2
680,168,822,2
578,204,961,2
701,121,848,2
772,-53,634,2
680,-104,749,2
722,20,664,2
618,78,593,2
640,128,655,2
607,147,925,2
689,45,724,2
776,103,623,2
724,143,751,2
668,143,780,2
675,47,853,2
559,0,825,2
632,66,799,2
776,41,510,2
714,24,579,2
714,55,779,2
509,361,849,2
579,264,753,2
786,116,540,2
564,44,708,2
502,253,776,2
690,360,647,2
832,-74,923,2
284,160,967,2
928,38,623,2
426,-6,775,2
767,-8,735,2
527,-22,658,2
780,418,603,2
732,-41,719,2
98,-498,663,2
399,-569,727,2
336,-617,628,2
632,-878,297,2
477,-761,181,2
1193,-557,735,2
856,154,1000,2
706,457,584,2
708,50,652,2
1017,473,907,2
398,82,737,2
907,-95,1031,2
127,109,806,2
541,-81,592,2
855,-36,811,2
580,117,723,2
625,123,794,2
928,-81,665,2
648,-65,716,2
698,-82,610,2
669,93,812,2
715,-137,754,2
606,-21,690,2
746,5,706,2
746,32,698,2
766,121,795,2
514,163,656,2
764,179,691,2
603,-13,764,2
735,75,600,2
680,132,622,2
734,3,582,2
785,79,608,2
583,-8,699,2
652,-50,847,2
579,-43,765,2
741,12,724,2
807,-46,635,2
754,28,526,2
1079,-187,434,2
728,185,592,2
813,12,750,2
897,54,676,2
769,173,806,2
669,55,737,2
526,311,810,2
765,31,697,2
687,344,753,2
736,55,610,2
982,-78,457,2
556,154,435,2
979,-167,418,2
661,91,418,2
782,-50,503,2
1010,-112,385,2
901,22,561,2
752,-24,565,2
922,94,412,2
990,-164,540,2
763,156,406,2
892,-163,529,2
972,-30,526,2
794,-46,455,2
730,-44,536,2
1103,-76,382,2
727,-234,912,2
744,-47,717,2
531,21,529,2
914,-117,573,2
891,4,519,2
546,8,323,2
1065,335,681,2
917,381,633,2
757,387,566,2
487,-338,946,2
524,-168,882,2
879,-36,315,2
1043,515,432,2
683,154,403,2
845,190,872,2
273,5,924,2
547,-266,847,2
608,88,699,2
638,-64,597,2
820,-45,627,2
566,172,814,2
691,-39,797,2
706,108,757,2
838,202,732,2
671,-81,782,2
775,194,882,2
632,31,848,2
773,159,696,2
579,163,935,2
527,177,804,2
696,304,907,2
519,151,774,2
703,230,717,2
660,189,642,2
603,22,703,2
621,123,805,2
557,76,744,2
761,2,665,2
566,108,753,2
619,105,838,2
578,103,894,2
630,105,786,2
442,147,683,2
760,-32,780,2
719,76,673,2
384,5,705,2
600,30,721,2
718,-37,682,2
738,-34,639,2
542,-20,896,2
661,92,700,2
567,41,810,2
736,-17,776,2
537,18,755,2
625,43,602,2
1072,-55,916,2
466,-129,571,2
341,189,816,2
664,-66,519,2
948,57,954,2
907,-187,568,2
329,173,1012,2
1325,-118,659,2
602,216,1149,2
339,-224,536,2
179,789,956,2
1050,-549,517,2
479,436,644,2
1355,-60,694,2
607,-75,728,2
-266,390,761,2
1370,30,879,2
225,228,1026,2
728,-17,438,2
475,97,775,2
661,339,679,2
888,-333,605,2
238,291,990,2
683,67,696,2
696,18,687,2
601,129,796,2
748,-88,702,2
473,111,772,2
606,82,891,2
673,1,771,2
522,13,735,2
640,83,807,2
568,-61,807,2
636,104,768,2
592,137,691,2
768,1,778,2
525,107,696,2
672,113,785,2
678,-11,737,2
533,29,686,2
817,49,797,2
719,-63,732,2
750,135,766,2
649,55,802,2
688,-7,780,2
730,94,761,2
432,93,744,2
953,192,877,2
686,162,780,2
533,276,850,2
596,213,769,2
614,244,845,2
687,223,635,2
597,12,831,2
674,30,623,2
595,-148,664,2
742,-163,681,2
435,-63,796,2
748,-187,767,2
574,-77,727,2
608,-120,584,2
789,-32,784,2
766,-162,531,2
650,189,667,2
642,-8,652,2
779,-233,660,2
860,-48,624,2
563,-136,639,2
681,-38,814,2
650,14,775,2
632,100,887,2
638,156,857,2
672,236,863,2
635,320,748,2
652,-63,821,2
589,205,718,2
657,46,723,2
626,22,703,2
630,239,686,2
747,63,646,2
728,35,650,2
676,-70,755,2
738,-38,738,2
693,14,640,2
855,61,795,2
572,74,742,2
694,-38,675,2
733,73,750,2
673,58,736,2
766,48,708,2
616,134,843,2
652,70,790,2
697,166,788,2
742,87,731,2
551,228,669,2
627,8,730,2
713,-27,713,2
727,45,645,2
601,-2,733,2
661,-2,747,2
719,35,800,2
676,77,832,2
564,139,730,2
723,-7,767,2
695,39,683,2
571,-26,732,2
614,-39,739,2
719,-55,688,2
803,-47,767,2
634,48,755,2
650,-46,708,2
586,-11,624,2
738,-163,727,2
694,-118,687,2
648,-129,565,2
681,-94,717,2
746,-79,750,2
807,-109,655,2
675,37,721,2
674,-93,706,2
777,-122,644,2
492,50,663,2
831,-47,806,2
844,-74,760,2
778,97,744,2
628,140,772,2
763,-43,691,2
591,14,686,2
854,35,725,2
616,-38,643,2
744,100,662,2
877,-59,800,2
560,97,820,2
665,28,774,2
729,48,715,2
713,30,668,2
655,73,806,2
723,23,722,2
708,56,607,2
600,98,755,2
562,72,813,2
686,-10,723,2
742,14,744,2
611,106,840,2
591,34,701,2
403,173,709,2
868,0,946,2
559,-135,572,2
534,199,700,2
674,-52,672,2
642,-10,899,2
1055,-82,845,2
349,42,708,2
481,289,562,2
963,-296,736,2
882,-213,623,2
457,-27,606,2
614,17,876,2
907,-320,559,2
759,-3,704,2
694,37,883,2
584,50,713,2
784,-15,720,2
704,48,881,2
649,190,902,2
655,132,754,2
707,233,711,2
577,118,788,2
638,-69,614,2
590,53,524,2
745,-20,710,2
832,-122,753,2
579,50,805,2
649,23,774,2
541,54,814,2
680,8,707,2
530,210,795,2
825,-111,735,2
473,298,743,2
640,-50,760,2
894,-23,741,2
610,31,843,2
418,-26,612,2
707,61,761,2
647,-69,529,2
698,37,829,2
636,-148,782,2
754,-31,698,2
636,10,665,2
662,-184,715,2
794,-82,619,2
630,-133,736,2
637,-70,722,2
653,-19,715,2
788,-157,705,2
745,54,807,2
716,52,812,2
709,80,642,2
1147,-205,492,2
727,179,683,2
689,-25,755,2
402,49,878,2
566,43,881,2
791,-176,717,2
658,77,647,2
878,-2,542,2
757,49,710,2
625,32,751,2
768,64,856,2
473,58,802,2
561,250,856,2
495,66,761,2
780,247,777,2
536,125,807,2
501,183,948,2
950,330,1219,2
1253,-115,647,2
317,445,723,2
368,107,854,2
476,22,733,2
892,-64,828,2
640,-86,656,2
881,220,871,2
1059,-543,210,2
477,458,1003,2
1026,-18,906,2
390,-155,526,2
518,-199,643,2
433,-419,524,2
205,-277,474,2
1245,25,679,2
770,-168,470,2
593,49,689,2
1208,62,647,2
854,168,827,2
926,-23,521,2
264,233,859,2
780,248,901,2
722,75,701,2
1221,21,905,2
618,837,1068,2
1064,82,749,2
-22,652,895,2
494,422,781,2
770,29,552,2
601,567,696,2
838,-49,519,2
537,562,678,2
910,98,633,2
502,-40,956,2
312,262,897,2
432,270,606,2
581,107,728,2
666,288,570,2
502,139,708,2
1167,173,849,2
1050,-79,497,2
392,-112,540,2
309,214,818,2
831,-96,672,2
793,2,763,2
417,131,768,2
791,161,757,2
655,61,769,2
454,248,891,2
843,83,562,2
393,38,448,2
1342,162,849,2
715,-159,348,2
329,167,903,2
721,-76,804,2
430,161,885,2
800,152,674,2
990,113,939,2
488,-75,597,2
926,636,733,2
645,118,785,2
1172,-57,450,2
602,87,681,2
559,96,735,2
746,287,618,2
412,-16,979,2
469,194,855,2
508,61,824,2
655,113,785,2
274,58,466,2
1358,552,854,2
851,-362,261,2
647,1105,1060,2
1724,-795,335,2
-1181,569,690,2
989,-14,787,2
933,-250,265,2
290,133,1046,2
1198,152,38,2
166,-25,1118,2
603,813,1317,2
1017,-446,212,2
233,77,1097,2
670,175,500,2
607,-174,530,2
963,110,247,2
1024,-134,419,2
869,52,431,2
863,-7,689,2
910,-71,815,2
860,21,789,2
962,-43,596,2
473,313,677,2
911,252,651,2
888,184,543,2
746,153,659,2
841,338,630,2
802,115,510,2
921,251,432,2
965,126,507,2
601,14,705,2
500,97,613,2
1004,70,509,2
710,-70,611,2
798,66,416,2
789,161,555,2
811,77,589,2
808,7,413,2
631,54,397,2
767,269,737,2
928,-98,265,2
972,163,484,2
1009,50,529,2
564,75,637,2
685,167,669,2
847,-65,655,2
693,47,634,2
752,32,569,2
746,-129,716,2
1020,93,467,2
604,0,482,2
805,258,693,2
856,45,590,2
923,184,621,2
760,130,600,2
660,178,791,2
592,254,733,2
794,155,701,2
718,98,657,2
601,354,759,2
726,-13,713,2
582,77,697,2
648,-14,767,2
753,25,548,2
961,-119,444,2
1044,236,157,2
1043,348,381,2
862,326,715,2
695,270,876,2
776,321,641,2
776,160,605,2
756,223,556,2
830,134,496,2
794,258,425,2
835,191,506,2
809,262,412,2
954,61,573,2
688,-3,401,2
799,-69,435,2
837,3,395,2
856,-37,415,2
898,114,354,2
834,54,510,2
887,224,455,2
920,110,462,2
881,98,222,2
923,110,343,2
829,74,239,2
1064,34,519,2
933,57,441,2
932,116,365,2
930,25,491,2
778,25,302,2
940,112,311,2
784,67,675,2
986,121,527,2
968,74,595,2
969,192,308,2
768,45,373,2
1041,21,291,2
867,-34,319,2
607,44,447,2
327,222,391,2
1276,-271,479,2
544,356,391,2
847,225,646,2
1290,123,524,2
807,85,444,2
470,158,320,2
1083,275,854,2
736,-11,403,2
637,269,527,2
602,179,770,2
1060,170,481,2
933,53,398,2
544,61,558,2
834,373,781,2
670,90,481,2
852,157,673,2
482,202,674,2
647,117,830,2
861,139,645,2
559,55,535,2
842,115,789,2
734,224,566,2
583,218,698,2
326,38,643,2
578,158,837,2
650,42,787,2
674,41,635,2
702,382,820,2
924,19,846,2
801,346,746,2
257,136,696,2
688,256,981,2
291,23,677,2
830,203,740,2
742,113,788,2
596,3,636,2
783,99,886,2
606,-109,971,2
398,-30,633,2
506,286,1054,2
936,-10,769,2
132,188,666,2
488,85,765,2
662,75,695,2
814,-98,933,2
814,-122,612,2
170,248,886,2
665,-159,842,2
809,-453,726,2
377,-34,764,2
583,200,753,2
704,68,762,2
814,183,704,2
642,-58,832,2
419,322,1049,2
354,-136,569,2
663,289,1019,2
802,-389,721,2
319,204,910,2
636,88,821,2
577,-51,659,2
857,286,1036,2
460,-70,927,2
459,175,818,2
522,168,852,2
526,34,780,2
498,-79,659,2
800,72,760,2
641,-41,736,2
452,58,805,2
404,-72,752,2
785,-20,901,2
516,71,797,2
413,162,931,2
599,70,920,2
758,-36,868,2
401,102,678,2
637,-68,768,2
711,35,703,2
688,-86,728,2
709,-66,829,2
474,21,730,2
800,72,799,2
724,200,815,2
547,75,986,2
311,12,1011,2
406,253,912,2
460,169,727,2
590,65,854,2
650,58,727,2
588,-49,798,2
499,19,754,2
521,9,786,2
636,-107,666,2
679,37,752,2
552,0,753,2
703,-1,779,2
561,81,705,2
565,-121,737,2
476,-288,747,2
677,-115,653,2
755,-19,836,2
902,-125,752,2
412,-83,748,2
760,-36,886,2
753,35,777,2
764,41,885,2
584,109,917,2
738,203,975,2
176,197,652,2
569,424,957,2
971,-124,813,2
338,53,937,2
408,262,919,2
473,165,749,2
685,-12,812,2
366,53,897,2
449,114,720,2
746,26,783,2
691,115,836,2
434,64,739,2
624,-69,764,2
794,-75,764,2
594,-177,647,2
500,-53,613,2
648,-154,720,2
833,-333,647,2
489,-79,792,2
443,-80,892,2
906,-130,1012,2
525,-58,730,2
1028,-15,1014,2
316,-21,638,2
498,32,677,2
404,-22,550,2
708,-26,946,2
907,-51,860,2
973,60,1075,2
888,-154,1095,2
-314,246,803,2
496,210,600,2
250,-145,650,2
702,-347,747,2
540,70,716,2
987,289,775,2
785,-126,874,2
336,110,907,2
612,-203,702,2
309,-35,607,2
815,-49,845,2
519,-35,592,2
329,127,648,2
1469,-387,921,2
170,157,552,2
709,-215,1314,2
450,-21,878,2
667,-137,450,2
736,-200,506,2
762,110,641,2
856,-187,749,2
527,118,1090,2
388,104,1046,2
619,-53,756,2
700,234,1043,2
293,128,836,2
414,117,871,2
442,79,795,2
664,11,887,2
558,65,902,2
442,16,825,2
557,156,699,2
477,1,800,2
706,-9,732,2
565,0,741,2
584,-157,645,2
658,-47,762,2
481,-73,650,2
614,-73,809,2
526,-57,723,2
682,-157,823,2
629,18,799,2
571,-37,703,2
841,214,1010,2
603,166,975,2
405,109,961,2
500,-15,783,2
611,386,990,2
611,-197,635,2
509,504,1016,2
427,128,1013,2
149,26,586,2
673,423,998,2
550,-486,604,2
501,125,710,2
427,151,801,2
859,-200,818,2
489,-233,866,2
679,182,863,2
498,-120,728,2
626,-6,714,2
626,43,879,2
836,16,657,2
556,-79,770,2
891,85,795,2
517,34,861,2
829,-25,861,2
285,-101,807,2
677,250,881,2
783,14,915,2
624,231,918,2
360,252,696,2
689,-141,779,2
591,35,750,2
430,100,712,2
614,-83,662,2
862,84,805,2
581,9,800,2
361,62,901,2
594,113,842,2
465,-26,660,2
622,97,879,2
541,-71,675,2
700,-141,816,2
568,-134,670,2
692,-104,820,2
678,-139,737,2
701,-68,728,2
575,-148,748,2
548,-26,800,2
626,-80,719,2
754,-170,858,2
600,36,842,2
423,162,755,2
644,-66,715,2
647,66,901,2
772,-129,834,2
249,230,983,2
559,289,1116,2
360,284,1007,2
566,196,840,2
472,145,699,2
705,-130,585,2
739,56,608,2
840,217,586,2
667,-307,613,2
513,-165,799,2
549,-242,630,2
677,-29,906,2
528,178,1025,2
390,-420,871,2
414,184,1078,2
490,-338,861,2
615,-325,510,2
947,102,622,2
637,-53,657,2
595,-27,388,2
754,296,907,2
730,335,504,2
783,-272,505,2
941,272,406,2
809,-134,952,2
743,76,636,2
789,23,754,2
832,336,670,2
840,194,668,2
758,383,716,2
812,168,790,2
838,258,440,2
806,313,518,2
608,253,339,2
687,226,444,2
658,391,592,2
610,281,641,2
707,117,826,2
564,-152,1067,2
467,-47,1094,2
626,-93,593,2
621,106,860,2
695,65,621,2
831,178,394,2
401,218,866,2
1052,-109,784,2
478,160,569,2
711,232,505,2
652,-172,558,2
821,79,615,2
863,22,810,2
536,-158,839,2
726,-118,704,2
644,192,752,2
852,147,678,2
545,175,600,2
876,336,822,2
564,168,703,2
923,38,595,2
625,158,668,2
701,244,759,2
696,149,776,2
700,168,661,2
716,30,535,2
508,-343,402,2
725,-58,569,2
806,239,744,2
759,148,779,2
623,-62,594,2
468,-125,643,2
725,-314,312,2
983,-295,476,2
1097,-505,525,2
1120,-509,593,2
1380,-265,765,2
1457,-176,691,2
1629,43,571,2
1688,342,408,2
1438,559,260,2
1213,820,184,2
982,748,185,2
680,670,268,2
635,646,203,2
582,634,237,2
616,458,305,2
651,411,423,2
672,297,495,2
740,64,516,2
813,4,445,2
553,216,531,2
698,414,502,2
807,418,265,2
1038,260,6,2
918,124,75,2
1015,-124,98,2
963,-101,190,2
1331,-119,205,2
1341,-2,498,2
1373,-75,806,2
1064,-6,883,2
963,-105,743,2
875,-668,783,2
656,434,637,2
657,-106,393,2
936,237,248,2
873,474,295,2
1050,799,378,2
1031,1365,943,2
542,1345,1404,2
-81,615,1061,2
-126,537,760,2
-237,57,311,2
-192,-337,161,2
664,62,632,2
707,-435,101,2
1381,52,796,2
1868,864,1613,2
-679,-985,125,2
1426,-90,256,2
629,-20,1248,2
-30,272,641,2
619,637,1380,2
-332,65,909,2
668,372,911,2
485,136,933,2
395,-19,765,2
760,232,754,2
701,563,746,2
683,141,679,2
404,52,932,2
833,-12,337,2
1052,-91,557,2
549,-162,257,2
944,-149,305,2
788,-2,637,2
828,20,600,2
603,37,585,2
1465,-16,548,2
-246,158,804,2
-428,168,722,2
660,-207,-637,2
-740,-578,972,2
73,1049,285,2
799,-385,112,2
374,-635,1275,2
808,451,-1778,2
472,158,1007,2
1227,-307,345,2
462,229,1090,2
1021,307,164,2
872,143,810,2
554,50,750,2
400,-33,630,2
755,152,531,2
506,-123,625,2
1192,-358,669,2
359,167,398,2
1615,-402,594,2
722,34,460,2
804,-77,841,2
898,-16,189,2
651,-404,630,2
933,-598,863,2
450,1,407,2
649,473,1007,2
898,302,998,2
927,249,1085,2
-194,713,305,2
1420,-429,584,2
105,354,473,2
991,152,472,2
1158,42,493,2
244,192,755,2
830,374,833,2
704,-7,953,2
484,10,579,2
1042,649,200,2
819,287,394,2
607,600,757,2
684,453,444,2
733,396,647,2
680,163,595,2
629,421,292,2
649,165,609,2
873,-69,910,2
546,160,655,2
981,456,520,2
536,802,756,2
639,621,567,2
752,476,551,2
462,801,575,2
750,232,401,2
470,598,370,2
549,192,477,2
1033,271,685,2
90,343,572,2
1421,638,589,2
264,55,586,2
693,767,650,2
827,197,528,2
609,123,732,2
57,559,340,2
1281,201,567,2
522,559,877,2
793,420,615,2
1061,188,326,2
285,156,732,2
1010,226,576,2
581,154,624,2
734,519,755,2
792,429,699,2
557,623,736,2
812,581,580,2
526,469,554,2
712,358,521,2
777,390,397,2
686,74,461,2
516,198,570,2
790,352,439,2
731,105,606,2
663,243,643,2
753,120,541,2
804,148,700,2
749,34,620,2
933,232,632,2
706,272,583,2
689,300,678,2
753,224,717,2
766,327,654,2
660,298,602,2
1023,106,518,2
590,230,497,2
901,93,579,2
840,316,488,2
801,174,517,2
712,-15,800,2
568,308,954,2
560,131,1061,2
586,41,683,2
527,-31,634,2
722,-48,488,2
663,5,582,2
750,119,584,2
687,-108,658,2
794,244,748,2
824,380,567,2
768,88,582,2
631,306,679,2
838,351,542,2
595,211,734,2
801,433,469,2
581,47,731,2
788,437,540,2
648,110,715,2
901,431,493,2
433,112,727,2
1151,459,316,2
398,-199,974,2
1093,911,244,2
154,-483,663,2
1236,495,713,2
469,-224,503,2
1127,839,744,2
522,37,679,2
582,-221,974,2
1113,1207,-131,2
430,-179,1087,2
838,494,859,2
432,180,74,2
1147,524,695,2
279,147,612,2
1003,658,748,2
609,93,156,2
527,458,729,2
976,338,614,2
470,233,704,2
744,237,516,2
741,115,815,2
588,50,600,2
553,-19,690,2
880,8,490,2
428,482,685,2
1159,515,601,2
243,162,584,2
947,366,545,2
675,268,599,2
549,345,780,2
828,323,680,2
678,300,727,2
696,631,783,2
766,481,802,2
482,595,663,2
678,549,618,2
513,402,554,2
438,-400,658,2
393,-359,746,2
457,-269,576,2
595,-258,682,2
546,-150,721,2
625,-267,592,2
667,-57,486,2
954,60,911,2
1070,70,860,2
879,-47,674,2
681,24,456,2
854,152,768,2
543,-146,586,2
594,-13,496,2
721,38,677,2
894,95,545,2
811,-75,390,2
548,287,1146,2
1011,20,684,2
698,352,548,2
367,229,930,2
586,-111,986,2
239,255,968,2
751,5,832,2
914,-16,580,2
409,-130,671,2
988,199,682,2
468,124,716,2
700,139,983,2
780,-91,607,2
459,187,757,2
1038,150,629,2
782,17,542,2
519,209,917,2
1056,34,388,2
475,413,873,2
479,-20,773,2
930,181,639,2
342,134,715,2
1050,6,595,2
685,-58,312,2
572,-166,930,2
912,-103,365,2
562,-8,782,2
539,-26,752,2
1042,-147,471,2
748,102,752,2
-330,-74,19,2
1069,703,511,2
701,-325,278,2
-464,181,859,2
497,-118,843,2
1308,81,463,2
-602,-213,806,2
1336,-114,-286,2
-221,507,855,2
1152,-320,663,2
1062,299,269,2
385,221,798,2
823,41,664,2
960,11,700,2
25,57,900,2
250,-155,560,2
1292,-149,310,2
1347,366,832,2
608,-200,190,2
668,364,799,2
1293,90,860,2
166,-474,801,2
371,63,700,2
1012,-49,215,2
700,-55,936,2
1114,-38,56,2
886,288,450,2
953,-66,462,2
737,-55,688,2
1010,185,830,2
862,177,482,2
-437,280,599,2
1586,48,93,2
-1244,613,796,2
1638,-594,547,2
1553,407,182,2
-546,-374,935,2
991,-541,102,2
561,392,952,2
1346,-320,434,2
126,168,569,2
888,-277,257,2
1261,-123,482,2
531,234,805,2
1096,300,10,2
479,3,961,2
1276,61,737,2
981,281,228,2
455,-155,664,2
179,32,910,2
1381,-358,140,2
558,322,657,2
933,-92,187,2
730,15,654,2
631,-70,812,2
1149,48,216,2
691,-74,815,2
700,-28,465,2
798,-172,612,2
933,28,843,2
557,209,989,2
703,-61,560,2
591,32,915,2
697,438,428,2
262,16,987,2
785,26,877,2
489,-47,528,2
1094,-172,711,2
880,185,410,2
428,-29,376,2
1420,-235,924,2
426,142,886,2
361,10,934,2
769,-125,514,2
495,-137,804,2
598,41,217,2
1282,-62,954,2
123,-281,586,2
1139,78,792,2
242,-223,660,2
1049,-461,807,2
44,299,549,2
926,-476,663,2
710,389,779,2
263,-19,1048,2
407,25,396,2
1601,-464,844,2
197,970,477,2
234,-190,908,2
593,646,627,2
382,-427,1030,2
939,225,199,2
906,-510,520,2
777,3,678,2
1047,-150,774,2
628,78,892,2
821,433,924,2
740,-23,740,2
611,19,923,2
894,151,658,2
649,184,778,2
481,352,777,2
700,28,493,2
845,94,542,2
214,65,827,2
1232,301,705,2
446,-496,581,2
718,232,970,2
695,222,469,2
413,-252,958,2
678,11,500,2
1069,11,395,2
428,-186,478,2
1149,629,560,2
507,69,896,2
294,101,646,2
461,474,1068,2
849,-213,1526,2
766,-126,811,2
903,126,483,2
523,324,600,2
607,464,360,2
778,42,474,2
694,342,585,2
826,-418,584,2
550,415,759,2
630,206,594,2
1039,234,477,2
196,-27,624,2
1169,-224,496,2
1185,93,529,2
195,498,752,2
1151,182,726,2
-63,626,745,2
986,149,657,2
1045,-165,420,2
666,263,681,2
734,155,597,2
582,505,794,2
1123,117,631,2
51,179,800,2
688,375,499,2
729,289,453,2
1000,-126,571,2
656,9,827,2
658,406,469,2
913,299,687,2
364,404,780,2
891,118,607,2
690,-45,550,2
534,287,672,2
835,412,543,2
1250,93,736,2
-217,149,774,2
1104,390,399,2
725,247,539,2
569,28,795,2
575,292,751,2
1041,249,305,2
-144,729,-23,2
229,-912,916,2
507,1246,1078,2
949,324,286,2
1286,38,548,2
-606,268,974,2
1332,593,644,2
724,129,821,2
378,301,777,2
940,489,484,2
-143,98,564,2
1371,333,441,2
-1114,153,521,2
1547,508,455,2
552,329,441,2
137,355,922,2
1063,-228,67,2
-257,-104,731,2
978,392,385,2
1286,-497,664,2
196,647,842,2
934,310,463,2
1290,-18,1022,2
-689,269,1021,2
1269,496,392,2
552,-543,391,2
716,-1,343,2
1025,83,581,2
906,637,898,2
130,259,1133,2
719,272,566,2
933,385,328,2
365,-138,990,2
413,622,478,2
681,832,96,2
939,-833,992,2
775,991,705,2
1074,377,603,2
372,207,1184,2
-45,946,836,2
790,-188,170,2
665,537,496,2
624,78,362,2
1334,-174,581,2
101,779,1091,2
703,114,811,2
407,544,428,2
1063,63,496,2
513,313,345,2
814,-73,797,2
705,487,686,2
652,226,851,2
773,92,490,2
648,334,627,2
506,163,614,2
884,392,539,2
718,388,701,2
563,213,691,2
880,44,416,2
865,205,713,2
479,283,794,2
742,330,603,2
540,262,709,2
789,337,616,2
728,119,622,2
571,528,891,2
765,455,424,2
973,174,717,2
257,527,967,2
891,515,536,2
325,316,639,2
710,377,672,2
903,233,447,2
516,245,815,2
706,160,623,2
749,405,599,2
580,286,660,2
815,207,613,2
704,248,609,2
524,422,703,2
678,128,738,2
628,414,653,2
779,0,488,2
754,270,534,2
550,241,732,2
473,249,499,2
998,171,570,2
812,547,670,2
681,107,878,2
691,235,823,2
557,251,599,2
888,227,402,2
487,186,565,2
1016,247,641,2
512,287,667,2
819,195,642,2
709,444,413,2
900,125,964,2
430,357,926,2
976,493,683,2
447,396,744,2
507,242,713,2
1242,387,387,2
-64,798,709,2
1049,44,958,2
189,665,889,2
313,-616,317,2
665,172,565,2
1140,-483,540,2
808,486,500,2
914,233,1243,2
336,-144,574,2
640,-35,797,2
962,-74,977,2
492,104,502,2
795,-16,748,2
147,379,965,2
1761,-778,-47,2
-1008,703,652,2
1347,444,733,2
1043,-566,715,2
-77,-472,715,2
1159,264,743,2
731,24,730,2
436,-140,640,2
333,-69,1125,2
904,-82,529,2
530,242,975,2
834,-382,601,2
406,154,706,2
522,26,738,2
794,-33,797,2
475,-9,877,2
496,152,783,2
598,101,1028,2
433,54,854,2
425,95,926,2
627,101,905,2
472,22,728,2
627,72,1021,2
558,48,719,2
398,32,907,2
658,-4,783,2
560,-29,726,2
490,96,703,2
855,-73,866,2
517,67,792,2
352,212,816,2
565,-66,906,2
424,110,816,2
440,237,936,2
930,2,824,2
395,-63,717,2
438,176,882,2
842,-194,548,2
311,149,1045,2
823,-84,706,2
405,341,805,2
731,152,995,2
128,-101,738,2
756,164,1087,2
496,-73,698,2
166,175,742,2
959,4,692,2
559,28,992,2
747,-160,697,2
875,226,865,2
155,-18,770,2
333,-119,732,2
548,-112,597,2
890,86,998,2
1239,-76,704,2
-213,445,1014,2
1129,-368,745,2
145,291,1114,2
722,49,841,2
476,-307,416,2
641,223,971,2
834,-213,571,2
799,43,1042,2
770,221,1190,2
591,-211,709,2
-146,21,837,2
633,312,798,2
451,-135,686,2
809,24,892,2
799,-174,681,2
329,140,861,2
250,70,697,2
313,-198,846,2
903,-94,1003,2
-710,156,92,2
1851,177,440,2
-1060,518,460,2
872,726,776,2
1077,-345,168,2
-182,-610,1206,2
1971,284,-82,2
144,310,1294,2
-151,236,721,2
534,185,773,2
543,-351,701,2
129,-116,214,2
937,495,971,2
1234,-592,580,2
690,767,850,2
764,12,993,2
575,-424,714,2
-210,284,833,2
950,-110,849,2
609,-168,519,2
1047,279,710,2
768,-132,424,2
918,-113,974,2
546,254,958,2
729,-59,659,2
823,205,788,2
512,-32,791,2
569,126,765,2
401,292,1013,2
600,-41,799,2
525,230,865,2
489,254,774,2
733,142,656,2
787,274,851,2
727,7,610,2
296,243,724,2
372,227,968,2
721,-19,663,2
410,190,990,2
557,152,669,2
761,79,731,2
492,112,814,2
809,57,915,2
402,154,508,2
654,295,1221,2
722,-298,412,2
431,-187,635,2
612,86,458,2
660,-157,575,2
1008,-57,1033,2
605,-5,650,2
961,376,1168,2
576,199,756,2
95,116,923,2
584,84,671,2
628,455,943,2
889,-469,467,2
887,756,841,2
209,-165,685,2
859,576,1492,2
545,-238,184,2
59,482,774,2
963,154,874,2
929,-254,518,2
502,140,418,2
1032,171,1188,2
229,-367,414,2
321,387,1167,2
1378,-323,507,2
208,893,995,2
518,213,591,2
591,-88,657,2
1025,168,1167,2
817,-166,423,2
201,295,1030,2
667,65,566,2
438,182,1026,2
634,-173,666,2
951,213,539,2
501,189,874,2
583,303,839,2
552,91,791,2
475,76,706,2
623,150,652,2
731,76,869,2
554,29,632,2
635,-114,606,2
606,3,743,2
664,-20,817,2
706,82,721,2
931,20,748,2
529,-103,758,2
262,98,692,2
781,157,894,2
1049,-299,663,2
378,140,484,2
735,-148,743,2
498,193,1008,2
632,-25,893,2
867,-7,594,2
492,88,779,2
888,157,742,2
338,-22,721,2
705,129,1005,2
578,139,811,2
689,331,708,2
546,128,890,2
710,62,660,2
641,-58,577,2
624,-256,412,2
500,213,1004,2
914,-373,595,2
853,370,1009,2
523,-162,828,2
544,39,735,2
280,314,740,2
674,0,639,2
917,-6,904,2
978,-56,535,2
368,452,955,2
495,-151,744,2
250,-121,696,2
769,71,989,2
1027,-130,503,2
930,15,648,2
368,45,940,2
520,-212,791,2
549,290,809,2
1043,88,870,2
150,-128,711,2
379,176,996,2
948,-27,785,2
40,233,859,2
810,-94,673,2
635,-26,691,2
767,197,1019,2
886,-394,657,2
-10,378,782,2
614,146,1025,2
710,-594,532,2
509,194,637,2
884,-52,701,2
384,104,898,2
544,9,919,2
782,-396,688,2
748,341,1153,2
895,-374,488,2
-8,139,698,2
631,79,774,2
851,-193,666,2
720,106,852,2
842,-25,798,2
283,191,1030,2
423,-59,656,2
636,-225,545,2
584,101,750,2
1059,-444,628,2
395,358,857,2
1170,-335,1017,2
214,-15,748,2
272,364,611,2
1110,-191,958,2
824,-186,739,2
27,416,500,2
728,3,966,2
-12,-144,743,2
1066,20,1051,2
775,-315,567,2
327,283,959,2
851,-49,799,2
330,-308,449,2
304,299,625,2
1523,-489,880,2
-170,78,374,2
1236,209,1193,2
352,-108,771,2
710,-104,798,2
1268,-298,1020,2
314,-206,745,2
130,258,171,2
794,74,820,2
741,-687,931,2
986,-83,460,2
466,250,871,2
579,-191,737,2
566,331,995,2
715,-464,910,2
642,139,532,2
436,110,889,2
600,-139,856,2
750,63,678,2
826,-61,781,2
491,-145,764,2
427,180,710,2
947,-214,818,2
373,-131,733,2
533,141,922,2
495,-80,719,2
701,143,843,2
807,-311,852,2
623,-182,779,2
458,189,716,2
609,-157,606,2
574,-1,754,2
807,-264,808,2
552,-76,796,2
710,79,892,2
634,-66,827,2
477,21,715,2
541,9,695,2
873,-183,825,2
474,-46,836,2
557,28,961,2
450,30,640,2
594,-205,727,2
1032,-246,625,2
446,-153,514,2
711,75,761,2
843,-313,748,2
552,-59,874,2
499,135,835,2
806,-245,736,2
546,112,819,2
373,80,890,2
1121,-258,654,2
459,286,961,2
302,-160,365,2
960,238,1245,2
176,-499,291,2
1190,93,783,2
644,-8,705,2
506,-309,633,2
341,-9,665,2
1045,-415,589,2
867,-201,829,2
804,-153,748,2
475,75,861,2
551,-14,680,2
919,-234,782,2
374,-120,728,2
892,165,764,2
1033,-267,739,2
395,-52,866,2
613,130,884,2
820,5,789,2
384,20,822,2
666,4,781,2
427,142,767,2
856,95,790,2
470,39,858,2
608,-26,960,2
524,18,798,2
600,74,682,2
479,49,853,2
793,3,981,2
297,336,762,2
585,125,1011,2
630,99,875,2
556,184,988,2
1091,-104,846,2
229,-89,157,2
427,-111,879,2
881,-467,562,2
641,-277,499,2
889,-114,552,2
525,-212,641,2
603,43,1043,2
547,-232,288,2
847,-30,985,2
546,-180,496,2
404,119,1139,2
1735,-602,447,2
-30,689,1133,2
856,100,924,2
631,21,796,2
569,1,866,2
886,134,823,2
481,-332,458,2
696,548,1082,2
787,-245,723,2
851,-227,846,2
544,220,959,2
677,43,682,2
640,86,781,2
819,-39,824,2
320,51,710,2
865,174,929,2
537,163,854,2
492,103,918,2
373,38,681,2
723,251,804,2
701,-38,731,2
351,0,600,2
533,97,859,2
731,-259,716,2
579,36,842,2
473,-34,688,2
725,17,818,2
630,-81,660,2
714,16,719,2
585,-201,697,2
597,66,808,2
852,-54,872,2
801,32,957,2
630,-60,653,2
828,-397,571,2
622,37,595,2
416,-152,645,2
752,-464,781,2
429,26,784,2
908,-287,646,2
732,184,629,2
545,495,1037,2
773,-326,789,2
513,-80,623,2
493,172,446,2
436,71,740,2
800,-425,482,2
745,117,1109,2
975,-37,324,2
192,20,691,2
907,186,1084,2
891,-365,356,2
13,292,752,2
1147,-261,721,2
594,136,759,2
765,48,818,2
871,-66,760,2
552,255,917,2
662,165,803,2
588,160,701,2
654,196,791,2
726,-103,705,2
1036,-34,690,2
450,150,904,2
594,-113,661,2
446,162,813,2
1083,-174,614,2
669,-42,749,2
554,-22,644,2
467,287,756,2
350,-100,510,2
1368,-226,923,2
316,-146,663,2
1128,151,635,2
194,28,629,2
820,268,1010,2
154,-228,464,2
1089,-272,714,2
958,193,563,2
778,-18,1094,2
363,-15,775,2
641,135,733,2
765,-58,665,2
376,123,871,2
858,-308,278,2
153,671,1103,2
1739,-579,292,2
-911,488,1196,2
1492,32,665,2
-39,274,308,2
735,231,1404,2
1521,-742,162,2
-579,214,657,2
1017,841,731,2
990,-394,922,2
742,-194,926,2
28,160,357,2
860,793,837,2
591,-368,803,2
1095,-117,1012,2
-295,-147,338,2
1675,170,583,2
-725,154,712,2
1547,425,1055,2
856,-395,367,2
892,99,1039,2
91,140,289,2
1006,-7,1020,2
673,62,678,2
615,-119,648,2
449,234,767,2
1362,-199,536,2
12,396,876,2
734,-146,328,2
1199,122,1163,2
44,-312,63,2
260,967,936,2
1353,-803,388,2
596,570,984,2
86,-197,748,2
953,536,796,2
660,-181,661,2
475,18,604,2
745,223,592,2
1037,-193,551,2
763,41,609,2
741,27,715,2
328,164,625,2
1801,-121,527,2
95,144,783,2
1088,2,504,2
530,83,589,2
953,112,570,2
609,59,802,2
1039,49,464,2
823,178,818,2
678,110,769,2
603,154,827,2
247,46,726,2
615,244,748,2
719,-29,747,2
752,-128,456,2
569,52,729,2
764,-117,831,2
553,95,746,2
567,103,751,2
836,37,1003,2
599,-163,623,2
633,58,799,2
905,135,912,2
492,-159,585,2
433,131,690,2
769,-27,884,2
480,-163,534,2
1162,125,884,2
504,-97,769,2
451,180,789,2
735,6,748,2
365,-43,686,2
820,17,681,2
502,61,895,2
1226,-341,641,2
470,197,589,2
707,142,867,2
492,-63,656,2
1275,-97,861,2
6,-47,764,2
812,318,1000,2
657,-108,493,2
867,449,1092,2
806,-188,929,2
67,85,740,2
859,-1,529,2
368,395,1083,2
990,-223,539,2
211,91,746,2
408,263,845,2
684,-197,688,2
781,122,736,2
490,83,875,2
745,-185,647,2
494,-71,566,2
741,-28,878,2
866,-308,535,2
183,-22,625,2
1009,180,983,2
567,-122,749,2
657,178,893,2
620,-16,706,2
730,58,665,2
555,23,825,2
532,-306,722,2
903,35,590,2
741,108,687,2
967,-41,849,2
623,3,918,2
435,-29,812,2
752,12,738,2
749,23,755,2
548,-82,685,2
688,148,745,2
701,-7,766,2
508,22,824,2
235,233,783,2
830,6,879,2
683,176,1084,2
478,-196,629,2
295,241,745,2
1069,-103,753,2
362,-169,470,2
677,-104,631,2
909,-7,588,2
319,-88,699,2
983,-107,936,2
435,-92,794,2
330,-88,630,2
1215,33,1097,2
258,-198,599,2
703,277,944,2
224,-134,541,2
1022,12,963,2
663,-268,725,2
753,235,927,2
473,-106,846,2
460,28,796,2
793,-138,735,2
466,21,667,2
628,69,831,2
905,-104,858,2
375,-33,674,2
571,8,929,2
469,60,822,2
923,-215,733,2
141,127,734,2
715,92,840,2
807,-290,663,2
858,-138,857,2
179,-18,610,2
911,-22,635,2
799,-81,867,2
875,-329,516,2
106,174,1001,2
1144,-257,698,2
277,-35,1015,2
706,53,965,2
461,-141,723,2
854,164,828,2
784,-117,718,2
548,127,864,2
602,-4,764,2
629,165,944,2
493,19,883,2
432,100,749,2
626,85,765,2
604,-43,785,2
559,36,779,2
556,91,804,2
619,-133,778,2
470,7,837,2
818,-232,742,2
445,94,793,2
674,-243,669,2
706,-27,624,2
690,-319,655,2
442,122,646,2
821,-206,599,2
859,-118,812,2
706,-252,695,2
599,-113,816,2
760,-94,890,2
685,-193,796,2
581,88,950,2
774,28,688,2
583,9,868,2
721,130,838,2
799,117,1008,2
196,130,863,2
836,78,712,2
332,87,704,2
603,37,688,2
699,95,837,2
614,-76,703,2
324,-22,802,2
831,-50,820,2
344,26,783,2
647,-178,504,2
842,-182,709,2
580,-126,681,2
641,-210,585,2
915,-26,722,2
453,-44,747,2
832,-239,742,2
560,3,688,2
807,-152,871,2
357,27,806,2
908,-125,782,2
472,-80,917,2
861,-53,766,2
657,65,692,2
556,42,840,2
735,-60,810,2
651,32,858,2
520,13,722,2
885,-29,826,2
459,57,658,2
438,7,749,2
713,2,818,2
613,-127,779,2
496,8,876,2
688,29,840,2
557,-5,800,2
626,-161,648,2
810,-127,706,2
518,-143,544,2
680,-112,695,2
768,-153,678,2
636,-11,819,2
534,-279,566,2
808,-70,767,2
540,-294,692,2
646,-101,875,2
695,-151,662,2
717,-93,856,2
837,-142,817,2
583,-52,838,2
623,-47,781,2
799,26,755,2
740,-194,741,2
633,-8,735,2
733,-52,788,2
542,-4,811,2
645,-119,687,2
766,-27,858,2
538,102,844,2
622,-166,803,2
630,-61,795,2
548,-147,689,2
713,-31,725,2
580,-95,631,2
756,-85,670,2
777,-199,741,2
409,-15,797,2
639,-216,647,2
528,-63,687,2
755,-264,815,2
500,-269,654,2
800,-188,786,2
704,-110,700,2
497,-175,726,2
793,-164,711,2
574,30,794,2
977,-338,701,2
419,-75,664,2
682,-60,740,2
853,-338,690,2
587,-59,881,2
587,26,792,2
744,-201,862,2
459,5,821,2
507,-38,682,2
1063,-276,711,2
336,-149,776,2
718,-38,752,2
623,-197,750,2
601,-1,704,2
671,-206,674,2
460,-99,778,2
604,-9,927,2
628,-232,804,2
644,-134,1057,2
464,-183,588,2
1091,-55,895,2
670,-414,616,2
386,131,758,2
944,-115,879,2
425,-95,670,2
293,99,725,2
1191,-244,820,2
493,-162,1025,2
429,63,978,2
372,-108,442,2
541,-126,569,2
1043,-59,1146,2
384,-244,534,2
22,195,606,2
1064,-242,838,2
909,-330,919,2
484,-124,729,2
848,25,623,2
375,-38,763,2
603,-375,733,2
634,-77,731,2
744,-135,778,2
449,-119,758,2
1115,-167,1151,2
981,-485,878,2
141,365,878,2
1056,-243,717,2
-160,-67,713,2
1221,-31,1257,2
447,-294,399,2
330,269,981,2
1170,-39,1005,2
-341,-644,427,2
564,668,1049,2
633,-505,230,2
479,-24,949,2
756,67,957,2
523,-331,690,2
292,-109,853,2
654,-246,856,2
511,-348,631,2
581,-12,669,2
397,-182,567,2
370,-190,728,2
1136,-363,871,2
683,-497,872,2
1161,-71,1006,2
706,-199,1011,2
472,-185,876,2
320,-32,419,2
870,40,773,2
827,-290,884,2
490,4,1061,2
535,65,1025,2
514,-160,670,2
551,14,708,2
639,-155,624,2
531,-77,748,2
587,-122,841,2
554,-299,870,2
587,-31,850,2
564,-33,664,2
675,-187,653,2
626,-134,887,2
562,-174,649,2
577,-57,787,2
774,-199,664,2
413,-178,816,2
640,-169,790,2
288,-225,512,2
1325,-45,1227,2
630,-687,427,2
349,220,868,2
525,-290,451,2
1061,-358,642,2
394,-46,952,2
1016,-294,767,2
172,31,954,2
439,-39,625,2
785,-154,668,2
1259,-432,841,2
243,197,1029,2
500,-367,691,2
625,24,704,2
604,-230,824,2
1004,-322,506,2
221,199,936,2
837,-347,730,2
609,-69,996,2
254,-197,653,2
1128,-33,590,2
292,-279,992,2
634,-91,819,2
492,-193,590,2
746,0,809,2
620,-136,739,2
1297,-380,1142,2
45,-197,879,2
476,96,533,2
484,-195,442,2
871,-427,702,2
438,113,449,2
981,-149,850,2
607,-371,1045,2
580,-367,905,2
554,-24,697,2
642,-225,730,2
468,-37,730,2
613,-163,823,2
827,-269,867,2
689,-110,971,2
410,-2,663,2
989,-243,795,2
233,-166,803,2
508,78,699,2
868,-549,667,2
487,18,1182,2
181,-46,550,2
1037,47,1084,2
574,-671,601,2
548,261,872,2
795,-399,734,2
179,-32,586,2
713,-60,744,2
966,-501,480,2
560,192,1096,2
422,-235,655,2
357,14,1121,2
1009,-440,811,2
456,80,1123,2
452,-328,561,2
466,72,591,2
493,-148,875,2
1041,-160,658,2
264,-148,850,2
1002,-118,986,2
248,-117,963,2
349,-72,799,2
555,-81,743,2
729,-297,636,2
627,4,922,2
501,-61,1003,2
689,-217,743,2
373,-151,643,2
754,-103,833,2
863,-426,586,2
270,-112,742,2
793,-151,460,2
781,-162,943,2
522,-165,924,2
585,-190,782,2
416,24,866,2
895,-132,1024,2
286,-359,789,2
355,245,982,2
1093,-289,693,2
231,-171,1050,2
565,329,772,2
669,-54,663,2
375,-92,1055,2
483,-45,681,2
480,-162,816,2
439,-325,794,2
610,-117,811,2
785,-315,645,2
431,-98,785,2
739,-80,684,2
698,-59,800,2
597,-263,850,2
450,-128,831,2
661,76,1032,2
706,-472,459,2
309,219,961,2
-102,-178,373,2
-15,201,525,2
1334,-547,1236,2
1967,-325,1716,2
58,-1295,-1140,2
236,1903,867,2
572,-943,213,2
-58,469,1263,2
572,-437,12,2
1719,-55,231,2
-440,-130,1508,2
1305,460,638,2
218,25,630,2
1256,234,-43,2
-655,-566,1447,2
1532,895,-438,2
63,152,1362,2
519,-542,440,2
607,60,1059,2
1085,316,-397,2
707,315,1039,2
686,-267,762,2
449,44,800,2
664,185,688,2
1057,-633,400,2
402,651,918,2
890,68,613,2
513,275,1190,2
288,-424,852,2
400,432,931,2
957,-179,751,2
427,-238,420,2
514,84,704,2
1329,-370,618,2
189,3,1070,2
455,243,908,2
538,74,671,2
762,5,967,2
408,-16,629,2
803,18,954,2
358,-25,730,2
722,155,1006,2
505,-60,875,2
440,-39,843,2
568,-20,698,2
882,75,757,2
495,-197,605,2
842,-117,872,2
605,-116,688,2
398,63,683,2
755,-76,686,2
642,-141,858,2
718,-130,891,2
275,-45,734,2
1034,73,1109,2
559,-210,815,2
176,70,665,2
813,93,525,2
793,-298,789,2
620,0,893,2
713,-92,769,2
482,135,954,2
341,14,835,2
695,-183,784,2
470,33,780,2
620,134,923,2
569,23,681,2
631,12,929,2
476,-70,861,2
494,53,841,2
660,-109,669,2
669,15,765,2
701,-394,570,2
633,79,893,2
312,-173,659,2
837,270,1024,2
703,-332,653,2
264,301,1083,2
459,-225,885,2
633,120,981,2
211,-171,820,2
722,29,701,2
337,28,661,2
1697,-428,722,2
-29,163,1004,2
1145,-166,887,2
79,127,783,2
308,-92,865,2
672,-79,857,2
706,-70,667,2
865,-91,912,2
242,390,1075,2
926,-219,477,2
-93,890,1460,2
1255,-195,186,2
780,-234,1069,2
-268,-224,419,2
696,744,797,2
404,-370,904,2
607,-436,595,2
534,511,834,2
643,-127,966,2
168,-303,808,2
632,47,733,2
66,-268,468,2
712,94,1058,2
1608,-850,9,2
-607,293,632,2
679,631,1664,2
1333,-951,-411,2
-856,837,1365,2
1705,-551,466,2
1553,-218,474,2
-899,260,879,2
-19,442,464,2
-109,-348,594,2
1291,682,1455,2
1144,-445,209,2
922,519,915,2
406,155,1003,2
284,265,683,2
-6,-259,1345,2
808,77,360,2
807,-390,619,2
995,158,766,2
545,375,602,2
199,71,1062,2
409,19,1189,2
516,-158,802,2
646,-126,624,2
596,29,661,2
497,-162,705,2
713,27,808,2
655,-30,846,2
663,-29,820,2
492,-116,714,2
761,-90,749,2
510,-36,750,2
536,-116,873,2
614,-105,734,2
563,225,978,2
569,173,909,2
674,-32,756,2
670,154,823,2
687,14,912,2
498,82,809,2
398,-108,822,2
752,95,699,2
494,128,776,2
490,79,914,2
638,40,857,2
576,-16,764,2
377,-195,834,2
654,-62,770,2
529,-90,786,2
817,-162,667,2
711,54,861,2
437,-61,804,2
784,-89,728,2
676,-231,675,2
762,-74,811,2
528,-26,805,2
507,4,898,2
697,53,854,2
674,87,831,2
535,-43,911,2
723,-63,807,2
694,-41,659,2
579,-83,806,2
745,-60,682,2
491,-35,730,2
810,38,886,2
559,-149,685,2
433,251,1022,2
587,-83,726,2
393,-168,653,2
134,-4,600,2
1414,-221,905,2
412,-260,665,2
517,90,854,2
767,-126,602,2
625,-78,804,2
365,-149,880,2
885,-212,577,2
724,1,943,2
878,-207,633,2
-106,239,808,2
1137,-318,684,2
525,-153,861,2
743,100,980,2
531,86,902,2
153,-169,687,2
646,63,804,2
1028,-292,495,2
528,-230,759,2
872,-111,599,2
412,-24,891,2
518,-90,927,2
780,-144,736,2
590,-45,892,2
691,-110,796,2
685,-68,835,2
381,-139,755,2
777,-30,831,2
577,-175,657,2
679,39,942,2
935,4,870,2
385,166,942,2
211,-27,795,2
748,50,823,2
385,-33,724,2
719,110,994,2
649,-198,406,2
592,136,1010,2
480,-165,889,2
805,-261,694,2
216,27,749,2
858,-159,617,2
668,-314,457,2
792,-231,624,2
595,-135,597,2
833,-222,787,2
631,-59,915,2
639,-185,856,2
666,-129,754,2
476,-42,953,2
691,-125,750,2
700,-4,856,2
657,-23,821,2
724,15,855,2
482,-69,854,2
434,-81,829,2
797,55,735,2
546,-166,754,2
424,77,735,2
750,-37,824,2
541,-69,828,2
347,104,910,2
1384,-93,1109,2
-143,-65,723,2
-3,244,752,2
846,36,639,2
590,-360,562,2
529,-77,569,2
1193,-78,870,2
1010,-420,788,2
52,-81,727,2
335,75,918,2
528,-61,825,2
534,-140,848,2
937,-52,885,2
328,26,896,2
462,198,1130,2
476,-26,1007,2
422,-128,666,2
549,0,633,2
643,-135,701,2
678,167,896,2
465,-53,778,2
616,21,1022,2
353,-107,864,2
502,-90,736,2
647,-89,575,2
793,-209,709,2
425,-149,769,2
682,32,782,2
781,-136,1001,2
521,-125,974,2
566,-30,920,2
406,-100,796,2
703,-74,764,2
658,142,759,2
700,-22,808,2
533,0,959,2
505,64,1019,2
407,172,1011,2
316,40,989,2
481,102,946,2
398,-55,729,2
558,83,641,2
990,-138,468,2
518,-64,943,2
626,-242,741,2
620,-237,388,2
743,-218,681,2
344,-358,1049,2
524,174,805,2
843,-114,583,2
613,65,693,2
362,-23,657,2
890,-450,923,2
376,-135,1061,2
283,-135,970,2
281,180,1063,2
236,150,1242,2
513,-1,951,2
674,157,754,2
356,23,792,2
491,58,560,2
502,-2,937,2
362,-93,1073,2
466,-89,1075,2
323,64,899,2
653,84,720,2
561,106,605,2
430,-147,1097,2
335,-146,961,2
391,-5,776,2
615,-356,663,2
566,-106,959,2
534,-13,996,2
458,21,870,2
472,-52,1037,2
292,-24,1004,2
383,28,943,2
550,17,849,2
390,54,825,2
576,40,770,2
641,110,780,2
528,-91,1011,2
316,-154,985,2
595,3,762,2
618,-174,778,2
582,-44,918,2
688,-363,646,2
562,-112,897,2
581,-111,946,2
526,-183,784,2
904,-233,579,2
523,-85,714,2
498,-113,824,2
760,-95,640,2
498,80,767,2
702,-208,948,2
533,14,878,2
466,-62,724,2
752,-41,722,2
776,-15,793,2
556,-22,827,2
575,-154,713,2
641,-98,850,2
711,-125,806,2
506,92,822,2
695,-117,748,2
409,-93,700,2
590,-208,692,2
735,-132,757,2
723,-251,761,2
548,-65,720,2
702,-86,775,2
801,-125,805,2
512,-59,870,2
628,-305,675,2
511,143,924,2
445,63,842,2
840,-99,674,2
539,51,936,2
591,52,892,2
298,-36,824,2
867,-60,742,2
311,-7,736,2
721,-33,838,2
687,-137,856,2
530,-26,734,2
549,-48,778,2
786,122,818,2
280,-13,815,2
696,-62,914,2
599,-21,605,2
745,-50,827,2
526,-109,718,2
559,-61,778,2
454,-79,744,2
721,-96,591,2
770,77,872,2
704,-124,769,2
763,23,747,2
592,-184,821,2
707,32,796,2
466,-96,836,2
645,65,958,2
502,-3,778,2
662,282,866,2
508,-60,846,2
619,15,877,2
400,-116,654,2
460,229,855,2
832,-298,577,2
498,14,936,2
675,-120,781,2
503,-58,617,2
835,28,754,2
593,-31,743,2
718,-152,963,2
391,-100,631,2
721,-59,690,2
688,-91,799,2
612,-74,762,2
528,57,905,2
634,-206,751,2
762,66,755,2
811,-51,881,2
578,-86,677,2
584,-224,686,2
739,-10,862,2
646,-59,796,2
432,8,914,2
710,109,933,2
433,-21,751,2
733,33,858,2
468,-127,747,2
420,100,927,2
461,-127,729,2
908,-61,790,2
641,-65,667,2
646,-2,808,2
499,60,701,2
545,-110,782,2
610,-234,780,2
731,-152,729,2
535,-127,710,2
561,-24,805,2
706,-82,798,2
683,42,871,2
380,-32,879,2
582,141,986,2
600,81,683,2
728,4,859,2
544,-80,695,2
547,-67,685,2
580,-206,740,2
774,-159,742,2
530,-32,756,2
483,-34,1042,2
558,-15,882,2
519,127,833,2
479,-73,822,2
616,-36,796,2
348,-148,688,2
601,-6,952,2
899,-333,699,2
478,207,744,2
738,-51,736,2
683,75,1021,2
600,-173,727,2
623,-32,764,2
803,-202,889,2
871,-89,904,2
523,95,811,2
320,-28,939,2
455,149,930,2
596,25,724,2
777,-76,767,2
676,-23,709,2
498,-54,837,2
361,-48,723,2
838,-80,777,2
433,117,735,2
497,-3,960,2
581,-49,1002,2
585,-174,726,2
441,33,860,2
568,72,905,2
625,-154,756,2
453,-30,711,2
820,-7,785,2
669,-3,790,2
466,-68,790,2
553,-123,745,2
674,-59,855,2
495,-94,760,2
604,-17,784,2
573,-79,811,2
628,-41,863,2
625,35,880,2
541,88,902,2
587,-56,886,2
657,-94,625,2
689,-52,738,2
592,-10,820,2
355,-38,696,2
483,122,824,2
798,-130,948,2
465,99,948,2
411,-38,884,2
622,72,872,2
360,-142,677,2
590,-27,844,2
489,-59,763,2
824,39,818,2
492,-140,732,2
953,54,671,2
463,57,874,2
525,-117,666,2
457,-261,708,2
762,-132,909,2
558,-164,486,2
858,-58,948,2
668,-56,772,2
811,94,1019,2
518,109,1015,2
375,223,923,2
632,-80,934,2
464,144,721,2
774,106,827,2
627,226,621,2
608,-222,690,2
340,-46,758,2
935,-243,996,2
49,148,955,2
613,70,974,2
573,78,788,2
414,69,795,2
728,-230,728,2
645,-2,656,2
803,147,755,2
329,-304,530,2
943,-169,998,2
91,-4,834,2
925,-451,1084,2
79,37,692,2
1002,317,917,2
460,17,723,2
710,-6,952,2
390,-36,820,2
1065,0,1103,2
193,167,917,2
453,-11,1003,2
598,122,800,2
514,281,639,2
548,-46,747,2
600,56,712,2
618,-152,851,2
500,-221,809,2
661,-123,751,2
327,93,798,2
576,-350,804,2
566,-253,769,2
667,112,776,2
540,-63,670,2
1039,-62,972,2
342,-117,470,2
926,-31,743,2
593,-137,759,2
331,-9,638,2
914,51,1146,2
452,158,850,2
504,-23,876,2
692,-130,975,2
556,-42,701,2
729,11,730,2
738,-72,643,2
675,-61,868,2
481,-38,809,2
686,-97,803,2
377,168,820,2
557,54,820,2
455,137,844,2
464,-80,838,2
722,-34,941,2
318,139,888,2
541,-19,742,2
622,-135,732,2
621,97,793,2
629,-147,726,2
675,-61,813,2
565,-267,681,2
755,-4,856,2
525,-103,751,2
329,21,943,2
671,42,917,2
574,76,881,2
593,0,797,2
696,167,911,2
807,-131,794,2
673,-48,623,2
812,-195,716,2
495,-45,751,2
592,152,922,2
606,-181,759,2
474,209,997,2
467,-60,956,2
637,-108,807,2
378,-163,683,2
691,-13,870,2
500,-162,782,2
715,11,756,2
602,-13,693,2
514,152,862,2
708,-122,939,2
531,-1,841,2
597,-60,811,2
705,48,784,2
442,17,705,2
453,-72,943,2
651,71,897,2
411,-4,906,2
591,57,875,2
695,88,766,2
682,-23,760,2
635,-194,626,2
689,-157,647,2
471,-77,770,2
631,-170,730,2
604,15,806,2
647,-20,1001,2
512,-235,811,2
779,-21,817,2
392,-227,655,2
515,-63,822,2
513,46,881,2
971,-125,823,2
861,105,898,2
505,7,686,2
433,29,825,2
559,-106,828,2
747,-80,752,2
616,-62,753,2
819,9,913,2
473,-176,877,2
590,147,1040,2
208,-50,767,2
853,4,881,2
724,-55,652,2
818,-14,770,2
594,-162,686,2
512,-56,688,2
529,-51,896,2
346,-82,620,2
327,149,884,2
427,-141,727,2
756,-189,1123,2
869,-126,810,2
498,22,791,2
524,31,765,2
470,-144,725,2
519,-131,759,2
835,-42,806,2
592,-164,754,2
709,32,752,2
671,-122,833,2
590,-162,754,2
448,-267,650,2
597,-111,842,2
477,-76,836,2
795,-32,826,2
741,-70,886,2
636,119,871,2
542,-194,613,2
836,-90,813,2
657,-161,668,2
412,5,885,2
598,-234,827,2
646,112,812,2
470,12,954,2
459,-90,777,2
545,-61,739,2
621,-152,745,2
793,-160,762,2
449,-155,743,2
639,-9,815,2
631,-84,742,2
650,-60,958,2
583,-151,715,2
595,203,709,2
607,-205,703,2
674,-41,861,2
614,-216,680,2
606,0,899,2
551,-213,807,2
560,68,869,2
577,-64,971,2
589,-68,836,2
596,-159,704,2
748,-24,855,2
580,-165,523,2
330,8,778,2
896,-224,998,2
576,188,768,2
312,-283,1049,2
584,-16,1190,2
1763,-420,691,2
-1052,139,1142,2
939,267,378,2
-317,50,-160,2
527,205,932,2
1479,-829,359,2
215,-6,1119,2
707,642,752,2
731,-88,-83,2
-451,210,1554,2
748,-280,749,2
902,-562,493,2
628,-168,821,2
983,7,577,2
773,550,1117,2
703,44,1129,2
594,245,916,2
494,65,880,2
662,208,677,2
578,96,591,2
433,407,787,2
533,107,766,2
513,63,953,2
518,-284,899,2
605,15,826,2
415,-111,709,2
533,222,650,2
575,-15,789,2
945,-129,760,2
479,20,646,2
743,11,835,2
563,42,812,2
478,88,863,2
503,121,748,2
657,-40,809,2
735,-90,616,2
696,51,771,2
591,52,945,2
487,121,1025,2
650,75,748,2
597,97,845,2
665,91,743,2
554,-172,678,2
543,166,750,2
733,-86,789,2
724,146,860,2
280,-23,849,2
669,101,766,2
588,59,820,2
416,-124,1040,2
556,150,894,2
712,-99,719,2
961,304,904,2
539,-37,867,2
1018,189,1145,2
-411,-236,19,2
516,504,1136,2
236,-380,325,2
1228,104,1068,2
551,-40,864,2
790,-114,774,2
548,413,919,2
355,336,824,2
27,77,1104,2
1032,-229,611,2
604,-129,840,2
729,312,714,2
402,249,794,2
531,257,942,2
534,-67,836,2
569,61,824,2
437,-336,705,2
614,171,861,2
598,-215,703,2
503,118,981,2
650,-129,899,2
672,-4,842,2
564,247,737,2
752,190,802,2
366,75,847,2
373,110,710,2
968,25,789,2
373,259,739,2
545,-77,951,2
414,99,939,2
433,39,823,2
469,-17,904,2
547,152,882,2
605,267,902,2
635,-145,570,2
854,25,769,2
510,146,827,2
387,-111,751,2
578,262,954,2
490,363,860,2
578,-173,690,2
683,98,880,2
373,-41,839,2
542,37,691,2
786,-96,616,2
569,108,908,2
511,-232,907,2
820,189,816,2
564,231,1023,2
609,97,830,2
558,265,826,2
394,-31,634,2
915,-156,852,2
498,-76,489,2
580,75,1011,2
788,-120,542,2
125,486,1223,2
612,-129,896,2
757,-50,838,2
514,212,816,2
682,58,619,2
535,205,897,2
841,-74,524,2
319,25,724,2
673,74,1208,2
502,-42,615,2
546,78,948,2
707,193,903,2
307,-131,932,2
342,45,864,2
804,-94,869,2
444,260,831,2
568,88,788,2
681,206,802,2
484,163,781,2
693,-15,749,2
569,38,729,2
446,134,783,2
523,-78,804,2
650,-102,831,2
347,86,881,2
650,35,856,2
462,212,791,2
673,338,1073,2
546,-227,551,2
736,-49,743,2
522,-83,659,2
664,191,662,2
842,-154,806,2
493,-58,922,2
621,-64,976,2
554,174,849,2
497,153,971,2
591,-46,809,2
454,-16,713,2
623,-33,778,2
742,138,685,2
874,208,718,2
307,93,1003,2
821,241,883,2
329,93,794,2
667,275,923,2
404,88,813,2
507,137,842,2
537,85,803,2
574,146,838,2
357,191,888,2
513,165,935,2
442,203,867,2
581,132,784,2
810,-164,521,2
708,214,751,2
464,-154,656,2
489,111,727,2
745,-144,1032,2
487,104,801,2
517,-198,755,2
549,179,961,2
638,-191,801,2
434,89,999,2
595,-90,796,2
539,12,878,2
682,-32,812,2
618,269,796,2
463,239,796,2
592,143,991,2
418,74,565,2
795,356,941,2
446,-303,531,2
467,30,871,2
487,-244,736,2
618,10,873,2
627,-15,913,2
377,295,929,2
709,79,1066,2
708,10,573,2
644,189,862,2
457,198,864,2
447,-29,740,2
567,230,831,2
649,5,824,2
703,110,697,2
344,98,895,2
562,36,882,2
422,-58,717,2
747,57,887,2
483,-75,834,2
710,-17,723,2
699,66,597,2
664,83,853,2
612,-66,780,2
417,-39,784,2
741,12,919,2
556,55,673,2
672,-12,842,2
453,212,804,2
669,-220,829,2
496,201,609,2
760,61,838,2
445,143,768,2
612,-78,887,2
784,-81,742,2
657,7,749,2
409,70,777,2
373,236,854,2
552,13,872,2
437,135,860,2
600,43,991,2
335,30,941,2
396,-31,969,2
560,8,999,2
381,47,838,2
602,-237,830,2
672,52,584,2
1133,-94,501,2
563,-59,638,2
514,-12,940,2
647,-114,834,2
559,-110,799,2
377,53,674,2
616,53,647,2
810,-336,725,2
542,-30,821,2
658,-136,742,2
717,-114,797,2
473,-107,778,2
555,-5,861,2
746,-302,740,2
900,-101,887,2
485,-71,488,2
479,-121,1069,2
527,-184,893,2
711,-16,690,2
593,-216,689,2
743,-199,667,2
533,-111,788,2
609,-110,1006,2
700,-88,819,2
653,72,746,2
605,-122,688,2
816,77,762,2
671,-65,848,2
442,-28,870,2
582,-100,801,2
493,155,828,2
625,56,909,2
672,74,655,2
418,-44,950,2
346,-56,851,2
606,-20,793,2
570,12,768,2
685,-52,723,2
733,-7,680,2
536,-123,746,2
536,-112,764,2
768,-219,568,2
588,-37,867,2
486,-242,739,2
801,-68,801,2
621,-95,729,2
461,71,1082,2
715,-127,768,2
489,175,903,2
513,-223,872,2
712,39,793,2
648,40,886,2
521,109,727,2
690,-54,741,2
590,-85,715,2
455,68,946,2
522,-18,761,2
570,-124,777,2
645,92,871,2
469,-257,734,2
512,65,881,2
653,-52,799,2
747,35,800,2
581,-143,657,2
584,18,793,2
739,-125,830,2
492,31,788,2
552,1,794,2
618,-116,756,2
577,22,925,2
680,-255,900,2
491,45,797,2
509,14,842,2
598,-84,906,2
417,-2,934,2
677,8,861,2
891,220,725,2
367,45,705,2
560,49,782,2
610,-46,786,2
598,-162,669,2
432,-152,649,2
968,-150,637,2
356,-80,711,2
923,-140,796,2
548,-176,709,2
693,83,1132,2
584,-141,860,2
670,26,793,2
656,-125,591,2
741,108,701,2
671,-89,742,2
452,103,943,2
860,-94,729,2
438,-30,885,2
520,-257,723,2
715,115,753,2
634,-215,772,2
362,1,863,2
843,-109,787,2
578,113,714,2
743,-158,815,2
694,-76,633,2
441,99,873,2
653,-208,709,2
607,-102,637,2
588,-129,692,2
771,-39,725,2
676,-30,864,2
674,-113,749,2
488,-24,726,2
726,-214,647,2
881,73,682,2
564,-118,734,2
338,17,884,2
698,-84,928,2
624,-22,875,2
476,-266,895,2
609,107,916,2
520,36,856,2
592,-43,695,2
728,-143,727,2
566,-22,610,2
528,-84,680,2
766,0,737,2
684,-184,818,2
578,29,916,2
369,-59,893,2
677,-134,757,2
662,-21,733,2
769,-94,789,2
568,-203,552,2
810,-74,854,2
753,-90,784,2
538,-67,900,2
528,-45,821,2
496,84,932,2
636,-142,947,2
553,37,861,2
359,113,833,2
867,-173,869,2
410,103,789,2
464,85,967,2
599,78,772,2
629,-185,834,2
592,-233,343,2
-845,394,81,2
1933,-72,254,2
-1004,339,951,2
351,343,835,2
675,-304,506,2
969,-281,883,2
856,53,837,2
306,-243,132,2
672,162,1102,2
564,-402,329,2
418,49,1530,2
811,-327,535,2
951,102,1135,2
773,-143,1036,2
-179,106,896,2
624,161,894,2
575,-291,537,2
995,8,1129,2
442,50,621,2
422,65,838,2
455,-5,791,2
666,-203,743,2
488,-146,870,2
683,-43,869,2
328,-50,853,2
846,-53,826,2
676,-80,789,2
731,-96,853,2
524,0,832,2
746,237,826,2
306,107,1017,2
589,144,947,2
62,90,894,2
665,234,954,2
451,-156,820,2
745,-136,902,2
366,-48,757,2
800,-51,698,2
796,-110,773,2
540,55,764,2
383,16,853,2
516,103,938,2
572,14,730,2
725,137,968,2
281,19,945,2
400,46,836,2
727,-15,805,2
555,164,722,2
653,-168,711,2
686,-66,749,2
391,-93,647,2
663,-27,730,2
656,-239,745,2
611,-154,904,2
269,-357,695,2
890,-74,945,2
503,-137,906,2
630,-22,828,2
715,-47,682,2
774,-17,726,2
230,11,633,2
983,-268,825,2
487,-124,692,2
549,18,742,2
847,-50,965,2
454,-24,1019,2
355,34,1009,2
576,96,868,2
497,71,833,2
710,-46,665,2
738,-227,614,2
564,-98,654,2
665,-127,734,2
745,-138,743,2
370,-40,949,2
413,-176,1040,2
452,-126,782,2
517,-64,956,2
673,-87,872,2
653,-82,653,2
671,-73,700,2
683,79,787,2
616,-208,668,2
506,-40,919,2
637,-137,806,2
373,-22,779,2
639,106,992,2
543,13,928,2
476,52,980,2
564,-78,784,2
510,13,787,2
946,-221,660,2
525,111,721,2
421,-124,925,2
536,93,679,2
494,-46,818,2
478,-78,956,2
490,-220,752,2
612,-23,1074,2
347,-286,687,2
900,101,995,2
757,-210,594,2
201,207,805,2
847,-120,688,2
617,-35,819,2
520,-124,939,2
680,66,694,2
325,27,953,2
510,125,968,2
508,-220,838,2
766,-52,797,2
461,33,989,2
738,-24,818,2
583,-33,678,2
723,-27,766,2
470,-104,666,2
521,38,878,2
394,-76,686,2
645,100,1131,2
422,-243,833,2
332,-59,1034,2
523,-73,827,2
686,-19,839,2
554,72,756,2
686,-30,670,2
589,18,742,2
554,-115,841,2
647,-100,842,2
449,34,878,2
352,-39,902,2
547,32,835,2
574,-37,855,2
613,-164,899,2
594,-104,799,2
699,-160,601,2
653,-19,798,2
930,-88,775,2
461,-40,810,2
211,-67,1052,2
615,94,857,2
438,182,1027,2
380,-53,948,2
412,-14,810,2
406,-14,986,2
513,-54,832,2
797,88,699,2
530,74,800,2
465,78,848,2
582,29,843,2
530,5,745,2
343,-176,842,2
698,-57,870,2
253,-56,638,2
722,201,1110,2
694,-352,825,2
386,102,1072,2
372,61,843,2
826,-1,729,2
510,-117,678,2
528,-34,817,2
586,63,857,2
511,42,916,2
393,-79,739,2
566,3,1033,2
446,-279,839,2
276,-59,1074,2
657,-50,785,2
529,161,700,2
748,-233,744,2
643,-47,712,2
790,-254,616,2
496,-213,734,2
758,-153,953,2
389,-69,864,2
469,116,1084,2
727,-40,794,2
603,24,847,2
638,-75,957,2
608,-8,719,2
610,-67,749,2
779,-131,622,2
481,-22,670,2
620,-125,889,2
194,-44,959,2
658,-129,951,2
367,12,781,2
558,-221,784,2
618,-113,841,2
495,-260,732,2
698,-142,732,2
718,-94,632,2
739,29,788,2
401,-140,872,2
696,-161,713,2
516,-361,704,2
523,13,814,2
722,-100,801,2
650,24,866,2
533,-168,1006,2
497,-107,864,2
604,-27,848,2
663,20,771,2
661,-128,667,2
457,-91,764,2
549,54,877,2
544,-259,713,2
522,-129,997,2
494,-89,719,2
725,-43,858,2
496,-357,875,2
376,-93,1005,2
678,-219,585,2
746,-18,695,2
750,-30,790,2
588,-64,705,2
465,-211,829,2
635,-42,784,2
681,-52,872,2
581,-96,871,2
302,43,1020,2
627,40,944,2
456,-217,876,2
552,-29,773,2
786,-23,665,2
769,-130,669,2
494,-178,667,2
477,-9,808,2
723,-152,933,2
185,-33,866,2
643,-133,987,2
437,-183,947,2
392,-22,994,2
532,8,860,2
622,-31,657,2
630,-44,723,2
830,-113,720,2
491,-148,844,2
442,-120,799,2
632,-219,767,2
485,-188,848,2
591,-59,855,2
561,-62,815,2
619,-66,940,2
639,-79,839,2
757,-62,812,2
611,-88,881,2
458,-193,764,2
567,-8,801,2
354,13,874,2
400,53,891,2
613,-6,806,2
297,-221,891,2
829,-52,937,2
334,-141,771,2
315,-52,711,2
861,-8,605,2
713,-155,729,2
504,-16,872,2
725,-108,757,2
493,-151,843,2
406,-105,825,2
658,-53,905,2
510,36,875,2
561,-97,875,2
680,-40,854,2
496,-112,856,2
521,-28,819,2
513,-160,607,2
687,32,811,2
688,-155,730,2
537,-15,1018,2
386,-103,982,2
462,-132,885,2
337,-89,996,2
470,-103,817,2
481,66,742,2
905,-84,690,2
540,-22,939,2
749,-114,677,2
567,-177,640,2
308,-98,713,2
591,-150,945,2
775,-119,946,2
329,100,899,2
530,71,1003,2
720,-58,965,2
436,-13,871,2
626,-69,666,2
654,-89,639,2
472,-77,805,2
407,-121,819,2
678,9,871,2
403,-107,758,2
412,-23,1021,2
755,-126,970,2
434,-213,925,2
356,-106,750,2
707,99,762,2
638,-191,722,2
574,3,959,2
595,51,761,2
524,0,892,2
343,-253,664,2
989,169,1285,2
-340,-388,217,2
1041,585,1649,2
360,-431,723,2
664,85,1202,2
707,-243,569,2
476,119,1007,2
288,19,822,2
646,-137,514,2
488,-30,850,2
596,-260,615,2
-100,-122,803,2
1038,67,1421,2
324,-519,711,2
252,102,1038,2
771,21,508,2
145,192,710,2
1062,-348,904,2
598,-113,597,2
509,25,1047,2
814,-186,816,2
397,-182,934,2
174,47,909,2
636,30,845,2
470,151,947,2
418,251,993,2
674,-122,820,2
656,-202,893,2
600,-12,771,2
628,-142,638,2
584,15,746,2
375,-56,887,2
563,-180,950,2
390,-122,973,2
340,180,1159,2
579,-41,951,2
511,27,911,2
469,-111,713,2
528,104,759,2
623,-183,645,2
551,66,813,2
731,-194,907,2
203,-176,736,2
615,-84,971,2
640,-92,742,2
498,-70,874,2
522,0,993,2
492,-135,868,2
660,48,827,2
676,35,875,2
513,96,943,2
312,-133,849,2
393,32,796,2
529,-31,867,2
467,-32,756,2
601,-203,833,2
545,-354,1001,2
507,-332,753,2
513,-14,871,2
660,-81,751,2
540,58,737,2
833,-176,767,2
659,-18,808,2
437,-2,873,2
452,-64,895,2
440,-83,956,2
534,-28,780,2
514,-107,836,2
611,-12,880,2
554,-120,726,2
702,-155,751,2
666,-116,672,2
730,-159,724,2
494,-265,675,2
575,-103,955,2
602,-77,780,2
372,31,915,2
565,-236,947,2
350,-271,850,2
532,-267,822,2
846,-121,848,2
743,29,682,2
535,74,671,2
736,-192,799,2
524,-134,812,2
421,-151,892,2
713,28,913,2
532,-107,787,2
476,-49,949,2
594,-79,883,2
551,-138,891,2
445,-167,669,2
927,-243,632,2
778,-90,594,2
589,-216,698,2
506,-209,825,2
341,-237,768,2
524,-93,919,2
620,-77,907,2
439,-241,959,2
338,-256,827,2
749,-161,813,2
555,-166,848,2
612,-214,752,2
768,-2,678,2
628,-105,797,2
544,-242,778,2
665,-145,816,2
534,-128,753,2
503,-100,832,2
752,-341,722,2
515,-117,956,2
546,-284,735,2
712,-69,807,2
764,-73,738,2
689,-102,784,2
666,-328,657,2
380,-81,990,2
269,-142,671,2
667,69,946,2
518,-246,554,2
468,-409,953,2
422,-546,960,2
507,-153,919,2
712,-319,738,2
792,-95,676,2
655,-324,529,2
712,35,726,2
723,-504,593,2
471,130,1011,2
530,-158,853,2
502,-45,905,2
533,29,877,2
836,-47,874,2
598,-259,778,2
564,-87,813,2
637,-144,617,2
779,-98,704,2
524,-140,770,2
448,-89,831,2
468,-244,879,2
526,91,991,2
452,-237,894,2
557,-172,844,2
383,-398,750,2
486,-165,798,2
874,-214,652,2
603,-159,831,2
770,-41,729,2
530,-131,750,2
609,-159,851,2
616,-74,758,2
488,-181,922,2
338,-135,999,2
496,21,875,2
594,-171,1018,2
528,-137,849,2
742,-45,627,2
677,-168,688,2
759,-210,786,2
622,-275,559,2
252,-151,855,2
493,-134,979,2
494,-281,768,2
539,-33,845,2
408,-383,977,2
578,-329,806,2
527,-278,867,2
596,-85,884,2
894,13,767,2
252,-87,687,2
843,-94,725,2
498,-199,718,2
626,-99,938,2
317,-126,1086,2
558,3,905,2
327,-147,828,2
615,-136,835,2
747,-37,783,2
679,-209,747,2
426,-189,899,2
722,-172,655,2
457,-267,670,2
168,-134,1001,2
540,-120,894,2
343,-222,841,2
556,-258,984,2
591,-516,722,2
456,-234,845,2
503,-310,740,2
841,15,758,2
661,-151,800,2
488,-43,841,2
652,-204,773,2
599,-33,806,2
506,-67,880,2
461,-106,883,2
447,-247,890,2
521,-178,721,2
846,-298,715,2
746,-246,915,2
512,-177,747,2
600,-165,779,2
611,-114,717,2
601,-156,865,2
464,-229,954,2
474,-57,919,2
361,-13,872,2
527,-219,920,2
395,-350,862,2
306,-323,727,2
683,-268,769,2
682,-366,650,2
788,-14,751,2
755,-183,667,2
383,38,827,2
483,-176,788,2
548,-190,1007,2
357,-284,892,2
426,-55,851,2
609,-284,664,2
761,37,878,2
777,6,769,2
814,-121,755,2
515,-335,795,2
597,-347,641,2
479,82,895,2
540,27,903,2
-150,163,1241,2
440,-160,1117,2
220,-218,903,2
491,-177,913,2
382,-186,838,2
590,-4,776,2
636,-232,758,2
588,-118,784,2
390,-218,782,2
493,66,947,2
546,-283,823,2
381,-121,954,2
535,87,959,2
636,-328,917,2
515,-35,743,2
901,-48,808,2
715,-95,687,2
474,-204,831,2
626,-68,832,2
482,-305,634,2
873,-321,714,2
412,26,972,2
397,10,1126,2
688,-324,628,2
258,-46,920,2
465,-330,792,2
568,-49,961,2
1003,22,711,2
555,195,603,2
951,-516,584,2
222,238,858,2
817,-347,838,2
72,-110,725,2
815,-152,989,2
538,163,946,2
515,-74,867,2
673,-71,827,2
816,-205,651,2
466,-68,838,2
597,-163,853,2
586,-76,412,2
489,80,909,2
496,-328,897,2
312,137,997,2
464,-308,1064,2
474,-200,744,2
602,11,952,2
544,-328,769,2
709,-12,785,2
759,-87,586,2
606,145,690,2
756,-191,841,2
312,-4,925,2
648,-187,1045,2
311,-33,804,2
736,-35,1077,2
424,223,854,2
519,-85,868,2
711,-11,730,2
734,-38,818,2
663,-107,645,2
462,117,757,2
520,70,1093,2
429,-235,644,2
149,72,1030,2
460,-91,880,2
405,-167,1088,2
611,-247,776,2
560,66,896,2
476,-9,791,2
451,-32,759,2
722,-110,766,2
578,-229,557,2
713,-156,735,2
693,-88,686,2
487,-245,1007,2
411,-21,1018,2
636,-93,945,2
326,12,879,2
655,30,948,2
1029,-90,785,2
666,-26,805,2
234,12,870,2
887,-240,659,2
190,42,804,2
354,92,1185,2
594,-187,700,2
244,37,1080,2
622,-306,918,2
315,-2,765,2
798,-30,862,2
614,-221,489,2
481,-101,633,2
899,-129,603,2
637,-295,696,2
603,-18,860,2
485,-118,839,2
473,-156,1060,2
360,-158,912,2
683,-33,1009,2
575,-26,818,2
781,-11,732,2
751,-78,822,2
603,11,850,2
447,-260,526,2
530,182,998,2
495,-296,791,2
215,230,1054,2
505,-77,1128,2
210,-84,897,2
507,5,855,2
657,-149,603,2
447,145,887,2
805,-165,687,2
258,-137,716,2
771,-74,913,2
917,-422,623,2
426,-33,808,2
202,-75,980,2
482,-119,773,2
478,-64,1034,2
627,55,928,2
776,-61,816,2
720,-114,834,2
617,93,943,2
636,-204,790,2
282,-159,567,2
460,298,1138,2
543,-176,602,2
306,-17,1034,2
605,-177,1168,2
392,-133,676,2
472,-75,1032,2
460,8,697,2
706,-188,602,2
523,26,795,2
1034,-196,650,2
339,-197,693,2
513,-266,788,2
940,-270,627,2
578,-68,677,2
701,-86,1041,2
827,-208,1119,2
425,240,1145,2
572,-65,905,2
785,288,881,2
670,41,761,2
215,349,793,2
763,-168,642,2
121,214,975,2
741,-331,963,2
224,87,543,2
776,-267,986,2
318,-385,750,2
866,-117,826,2
397,-147,634,2
754,-119,739,2
575,-83,874,2
547,161,608,2
566,-27,689,2
765,-226,732,2
205,83,974,2
973,-401,661,2
608,-107,833,2
463,-53,1051,2
519,16,944,2
824,-155,771,2
726,94,895,2
839,-102,837,2
398,0,653,2
472,128,888,2
553,-70,942,2
368,117,829,2
348,45,919,2
461,-173,963,2
446,16,1021,2
535,-74,757,2
687,32,831,2
460,-154,633,2
651,122,790,2
613,-92,656,2
528,67,856,2
284,-189,951,2
416,-118,1043,2
401,25,861,2
560,7,933,2
569,-16,910,2
445,57,821,2
748,-100,855,2
732,5,681,2
647,-61,779,2
369,-256,709,2
390,144,1011,2
348,37,1037,2
265,-79,1062,2
439,-264,954,2
293,-216,833,2
590,-45,978,2
767,17,713,2
635,69,686,2
476,-109,799,2
785,-162,647,2
612,-53,759,2
416,138,1046,2
377,81,1289,2
158,266,1044,2
378,-4,914,2
501,175,877,2
650,104,1003,2
534,-23,690,2
875,26,728,2
778,-24,656,2
340,43,886,2
375,-49,1023,2
233,-42,861,2
352,267,1061,2
462,-120,926,2
322,104,995,2
271,-200,962,2
606,0,891,2
475,148,1019,2
662,146,618,2
550,149,867,2
467,150,851,2
570,-180,527,2
567,71,1061,2
341,79,985,2
281,92,977,2
614,-27,912,2
439,143,1002,2
588,118,939,2
656,17,754,2
612,232,901,2
610,-216,656,2
355,199,916,2
359,-217,766,2
445,130,1018,2
628,-128,700,2
345,196,1018,2
663,-393,883,2
439,176,842,2
526,-152,937,2
554,104,747,2
795,65,790,2
539,39,740,2
552,-60,890,2
507,75,807,2
603,190,795,2
643,-85,829,2
582,67,875,2
436,33,925,2
619,123,875,2
569,103,742,2
726,31,827,2
507,-61,710,2
932,226,848,2
550,-47,645,2
301,93,982,2
395,-113,817,2
442,34,922,2
358,-233,993,2
599,11,911,2
480,-154,851,2
705,-5,748,2
990,100,559,2
467,9,706,2
393,18,966,2
630,10,808,2
330,-26,747,2
671,65,1060,2
584,248,1148,2
495,-24,867,2
614,79,724,2
873,80,854,2
539,141,870,2
559,-6,748,2
360,80,697,2
300,69,926,2
235,210,1128,2
269,-91,1036,2
491,12,936,2
385,-3,887,2
598,-44,836,2
822,34,542,2
806,52,619,2
464,-218,636,2
626,-108,688,2
599,152,870,2
420,-210,794,2
618,-2,1003,2
393,-149,894,2
601,167,970,2
861,45,1025,2
557,297,803,2
392,327,525,2
423,30,882,2
464,-144,899,2
569,-186,1053,2
325,-200,792,2
681,106,1008,2
365,-157,1055,2
781,140,768,2
521,403,528,2
673,70,834,2
406,-56,727,2
762,15,803,2
266,44,766,2
708,-77,896,2
417,84,973,2
460,7,807,2
889,-90,1073,2
354,235,794,2
753,169,972,2
329,320,758,2
584,100,720,2
234,341,909,2
573,-351,983,2
163,-150,912,2
745,-18,950,2
293,-10,855,2
781,-39,878,2
328,323,784,2
625,-25,841,2
715,-44,575,2
652,-124,569,2
596,-172,655,2
570,-174,743,2
601,-249,796,2
507,-2,851,2
560,45,1078,2
532,129,1181,2
541,445,1129,2
597,149,854,2
560,253,558,2
933,31,666,2
638,-477,572,2
318,319,1081,2
328,-153,995,2
410,-112,893,2
411,145,1126,2
538,-4,926,2
248,41,785,2
596,83,911,2
684,17,705,2
611,37,759,2
472,-79,821,2
467,-42,764,2
560,-68,998,2
307,-55,964,2
527,60,1097,2
319,-16,976,2
504,57,998,2
703,66,763,2
819,-28,665,2
726,-132,643,2
577,-251,689,2
356,-218,908,2
264,39,974,2
309,-86,836,2
323,160,1106,2
617,-571,886,2
373,163,1025,2
600,-54,745,2
668,62,635,2
493,40,973,2
524,-129,685,2
643,-137,715,2
567,18,791,2
551,-12,825,2
677,-38,1137,2
282,14,971,2
265,131,928,2
553,31,882,2
792,-124,711,2
737,31,749,2
564,-82,760,2
580,31,765,2
389,-51,818,2
463,-51,948,2
451,-64,1031,2
345,-133,879,2
195,8,986,2
533,-307,905,2
759,109,837,2
658,124,655,2
565,-143,839,2
830,61,834,2
463,-139,813,2
425,34,882,2
558,58,800,2
494,-165,897,2
407,209,998,2
574,-147,923,2
622,0,834,2
542,-57,786,2
740,-67,691,2
692,65,674,2
717,-196,737,2
587,8,804,2
138,-358,908,2
669,206,1128,2
169,215,914,2
30,-105,1104,2
358,-277,999,2
502,58,710,2
665,46,978,2
576,-5,683,2
782,42,655,2
606,-94,833,2
476,-114,714,2
576,-75,857,2
260,-109,925,2
350,286,1162,2
417,5,811,2
590,114,990,2
501,-73,836,2
592,-66,788,2
790,-80,676,2
828,-94,618,2
635,-32,833,2
401,-32,917,2
416,-78,961,2
254,311,1076,2
226,-4,998,2
316,-128,985,2
318,-76,824,2
491,103,1000,2
569,-223,802,2
837,197,672,2
751,-102,739,2
470,24,822,2
657,39,865,2
435,-100,851,2
287,105,1002,2
498,201,1014,2
263,205,857,2
433,139,1093,2
560,71,768,2
891,94,807,2
527,-77,789,2
522,19,801,2
437,245,1034,2
124,10,649,2
193,509,1336,2
460,-167,812,2
366,267,911,2
273,-119,978,2
258,7,1019,2
551,18,828,2
676,3,600,2
690,-36,837,2
760,-126,626,2
649,-210,748,2
465,-80,668,2
535,20,880,2
516,19,1024,2
431,175,941,2
448,226,1064,2
605,90,863,2
654,148,983,2
710,-104,818,2
688,111,782,2
737,-58,848,2
487,178,797,2
159,133,941,2
332,310,1127,2
202,263,870,2
251,-68,1112,2
242,-151,959,2
382,-54,927,2
546,57,949,2
690,107,631,2
450,3,819,2
539,34,797,2
594,120,941,2
557,-138,633,2
330,169,1102,2
564,13,687,2
448,24,939,2
347,20,929,2
473,11,1046,2
427,100,966,2
446,67,924,2
832,2,757,2
565,117,781,2
544,143,937,2
208,-157,785,2
303,236,1315,2
119,196,797,2
295,-239,958,2
371,200,875,2
354,-155,896,2
556,-114,907,2
535,5,1037,2
752,44,620,2
639,-31,739,2
579,-2,892,2
507,174,874,2
494,61,668,2
386,168,1106,2
385,52,873,2
481,303,862,2
428,199,945,2
380,127,1186,2
283,390,1227,2
634,-65,716,2
749,111,405,2
882,193,541,2
568,-203,782,2
331,-140,681,2
406,127,1045,2
297,-196,834,2
473,465,965,2
559,-264,1049,2
215,-104,949,2
364,19,902,2
722,-47,854,2
584,86,817,2
687,82,844,2
446,44,856,2
485,56,775,2
296,91,1054,2
364,-156,1004,2
515,319,722,2
614,202,848,2
370,246,974,2
190,-10,1025,2
495,24,984,2
483,142,911,2
746,136,937,2
640,-6,749,2
490,207,973,2
360,122,963,2
239,-224,816,2
497,316,727,2
417,101,866,2
405,-52,985,2
248,9,900,2
395,242,1016,2
427,-300,819,2
700,273,1030,2
514,121,735,2
531,252,755,2
488,185,641,2
623,289,705,2
352,-336,1098,2
396,175,936,2
610,102,778,2
111,-10,1006,2
124,62,1154,2
322,-30,1004,2
389,331,915,2
615,209,911,2
744,250,734,2
692,113,603,2
550,205,702,2
417,-223,1013,2
475,-33,941,2
491,-284,879,2
170,-133,1176,2
226,42,938,2
616,194,834,2
485,91,954,2
346,18,1217,2
603,127,975,2
692,332,640,2
359,275,826,2
632,177,760,2
433,78,701,2
515,9,1008,2
438,108,809,2
314,242,931,2
402,32,949,2
276,83,1128,2
221,261,1077,2
376,291,962,2
640,381,866,2
657,91,555,2
700,336,799,2
647,32,633,2
614,-93,958,2
543,-143,1045,2
169,-30,884,2
601,172,911,2
238,205,1057,2
172,-17,976,2
453,-46,928,2
506,86,892,2
614,147,797,2
569,451,812,2
630,-16,689,2
397,63,850,2
518,58,1023,2
242,50,611,2
442,123,1082,2
253,115,993,2
-22,159,1217,2
309,168,1039,2
195,361,1093,2
639,324,763,2
697,441,726,2
554,112,790,2
732,314,630,2
692,65,984,2
35,-30,1115,2
-16,-167,787,2
476,-82,945,2
57,140,1093,2
77,115,982,2
207,97,950,2
204,88,1159,2
417,85,878,2
613,307,910,2
594,167,743,2
382,-94,867,2
266,-38,854,2
412,-55,809,2
566,222,866,2
356,299,916,2
225,276,1100,2
258,155,1027,2
223,139,1083,2
254,100,1082,2
375,282,1189,2
658,141,828,2
703,340,793,2
395,400,838,2
542,82,774,2
433,100,881,2
355,-152,907,2
43,23,938,2
225,144,930,2
244,12,915,2
240,101,1011,2
84,-53,1000,2
426,7,1116,2
578,384,875,2
363,217,815,2
460,115,724,2
506,-192,666,2
713,-46,789,2
648,24,573,2
429,13,884,2
307,-104,1022,2
186,-6,1235,2
172,164,1037,2
80,358,1202,2
273,148,1078,2
515,599,1114,2
543,553,799,2
271,342,916,2
229,280,951,2
506,257,965,2
-96,-152,1019,2
156,157,895,2
471,-25,615,2
322,201,784,2
384,-331,934,2
189,-100,1277,2
410,89,1001,2
424,258,1107,2
416,305,806,2
359,171,787,2
580,146,702,2
454,185,955,2
265,143,906,2
383,165,907,2
193,214,1021,2
76,168,1030,2
142,310,1039,2
29,197,1145,2
217,289,1294,2
429,375,867,2
777,288,685,2
724,171,428,2
682,186,982,2
592,14,818,2
255,-61,929,2
23,-135,1011,2
259,97,1036,2
4,30,945,2
1,369,1127,2
125,28,1176,2
234,354,1011,2
493,305,730,2
420,106,818,2
308,264,1025,2
462,84,833,2
317,53,800,2
468,-54,1003,2
514,168,744,2
206,41,847,2
205,95,1152,2
73,63,1002,2
119,245,1198,2
299,288,957,2
515,259,920,2
667,72,686,2
710,262,885,2
502,193,814,2
655,-188,964,2
386,-48,719,2
-32,62,1132,2
86,-10,968,2
383,497,1148,2
89,-133,923,2
422,11,850,2
334,120,1119,2
598,51,888,2
503,438,871,2
377,155,941,2
179,208,870,2
487,196,904,2
479,184,814,2
187,260,916,2
425,271,956,2
-115,2,1082,2
185,322,1057,2
210,216,904,2
321,276,1038,2
487,237,887,2
711,204,751,2
625,302,820,2
377,5,913,2
593,-84,764,2
451,196,1067,2
151,-31,876,2
302,49,1062,2
312,67,934,2
303,137,925,2
362,-30,947,2
418,23,794,2
364,231,1096,2
598,212,809,2
181,301,1039,2
276,81,938,2
436,222,853,2
539,168,709,2
545,190,855,2
-17,42,995,2
57,133,1163,2
233,36,1096,2
250,177,882,2
344,425,867,2
811,146,881,2
492,308,747,2
476,145,1017,2
462,185,896,2
483,102,928,2
313,25,835,2
118,-84,1023,2
74,14,990,2
181,26,1023,2
492,213,896,2
348,70,917,2
363,-105,900,2
700,172,851,2
352,144,971,2
464,283,848,2
210,38,1044,2
497,66,882,2
143,324,1107,2
312,274,810,2
157,326,950,2
335,57,970,2
279,13,989,2
211,171,988,2
633,228,864,2
440,64,1034,2
410,336,953,2
635,218,952,2
330,317,769,2
487,200,915,2
283,166,944,2
9,-46,985,2
503,-169,851,2
265,211,890,2
275,64,1002,2
557,-82,978,2
362,0,818,2
398,202,1037,2
527,176,817,2
344,358,1054,2
263,46,771,2
339,181,1132,2
330,153,896,2
494,144,717,2
305,257,866,2
95,-66,1123,2
37,13,1173,2
107,178,1216,2
44,359,1052,2
581,593,767,2
666,275,725,2
634,198,907,2
347,136,939,2
372,-27,866,2
387,95,842,2
-52,-8,1132,2
225,-44,983,2
99,148,922,2
570,75,971,2
322,-29,769,2
326,-10,969,2
480,-6,962,2
446,343,1119,2
139,56,898,2
452,206,915,2
406,-26,732,2
769,142,794,2
218,129,948,2
132,101,1002,2
213,119,1166,2
84,98,1061,2
135,310,1179,2
261,381,972,2
662,510,879,2
491,270,760,2
666,414,1049,2
545,-100,655,2
424,155,858,2
226,104,1072,2
-270,-27,1072,2
186,274,1024,2
59,193,990,2
209,76,964,2
181,162,1034,2
515,-19,899,2
439,60,877,2
359,115,962,2
468,189,787,2
460,260,834,2
454,53,845,2
471,19,1068,2
19,218,879,2
257,158,1180,2
-171,328,1105,2
-125,458,1251,2
292,374,983,2
415,597,831,2
507,168,793,2
525,247,788,2
538,146,865,2
621,10,626,2
222,205,1165,2
104,-35,933,2
-119,38,1062,2
297,57,954,2
144,181,857,2
98,79,903,2
522,63,1138,2
291,-65,1007,2
429,108,746,2
518,94,897,2
408,236,907,2
221,65,1006,2
265,125,986,2
452,223,982,2
254,305,830,2
-9,351,1064,2
-147,267,1208,2
22,93,1103,2
311,315,933,2
50,236,876,2
687,429,816,2
820,-13,640,2
647,201,936,2
427,-18,787,2
462,19,1036,2
258,80,1021,2
101,114,938,2
181,170,998,2
263,78,1014,2
-120,8,1244,2
306,286,974,2
488,132,860,2
606,313,862,2
352,232,918,2
286,104,895,2
375,117,756,2
377,47,968,2
544,227,898,2
-97,267,1043,2
412,294,1016,2
40,241,983,2
171,186,1040,2
177,319,1038,2
316,24,954,2
683,394,926,2
578,178,855,2
337,196,913,2
310,35,870,2
824,108,663,2
242,204,927,2
176,66,1046,2
391,-98,1008,2
22,181,1092,2
277,9,1050,2
63,6,1049,2
504,237,870,2
470,375,945,2
430,196,926,2
197,213,1003,2
320,141,724,2
592,254,835,2
234,55,697,2
404,175,1122,2
226,43,916,2
135,93,1047,2
271,222,829,2
330,168,857,2
473,43,911,2
350,89,1003,2
206,23,858,2
702,87,1003,2
333,-63,949,2
1237,37,439,2
652,18,819,2
300,208,1006,2
300,195,1212,2
169,247,1286,2
-382,193,1105,2
41,264,1066,2
1070,208,964,2
-548,-59,677,2
254,83,1098,2
1241,132,839,2
-371,223,997,2
1310,314,810,2
-304,161,899,2
374,526,885,2
989,253,510,2
-573,574,979,2
803,269,1013,2
-622,-174,970,2
313,269,1106,2
-86,90,962,2
325,292,1257,2
192,384,845,2
729,188,911,2
801,-29,524,2
720,-21,698,2
800,0,573,2
474,302,715,2
411,-8,1049,2
-18,2,1131,2
142,8,978,2
552,330,1098,2
126,-148,941,2
325,-2,1172,2
141,149,1156,2
370,149,1109,2
730,520,851,2
407,210,804,2
236,403,904,2
289,361,830,2
262,157,1001,2
361,179,841,2
568,397,660,2
283,116,832,2
519,54,997,2
133,-38,946,2
358,166,1258,2
251,14,890,2
601,296,802,2
968,68,705,2
716,128,472,2
564,16,910,2
795,-142,890,2
273,72,930,2
277,-103,1013,2
104,135,1103,2
155,193,1074,2
122,115,1092,2
173,53,919,2
219,378,1100,2
455,549,889,2
592,120,792,2
103,178,1111,2
316,169,824,2
502,156,646,2
531,226,715,2
659,-33,914,2
358,35,892,2
376,-131,862,2
376,15,1029,2
55,153,1014,2
274,10,1092,2
168,364,1083,2
712,256,879,2
743,337,879,2
166,129,1021,2
475,188,925,2
409,170,796,2
490,-105,797,2
302,56,1045,2
210,-115,986,2
180,136,1012,2
230,18,1009,2
194,74,834,2
43,138,1174,2
519,306,920,2
42,333,1087,2
124,160,996,2
341,37,819,2
672,261,677,2
589,126,757,2
326,125,1006,2
444,-222,818,2
282,90,943,2
182,-23,867,2
136,161,1193,2
82,288,1039,2
373,286,1062,2
437,332,930,2
300,245,1087,2
421,179,880,2
413,309,1024,2
322,130,855,2
426,344,776,2
615,102,844,2
247,-60,872,2
445,88,925,2
226,75,1002,2
254,79,950,2
269,92,959,2
547,-44,869,2
249,361,1119,2
289,290,1009,2
191,134,928,2
283,125,869,2
537,220,805,2
573,242,829,2
422,-38,838,2
434,124,733,2
340,9,916,2
354,-1,1035,2
35,135,1108,2
177,268,1226,2
224,324,925,2
164,466,1173,2
160,200,981,2
621,307,889,2
274,242,913,2
291,307,1151,2
873,211,582,2
608,-139,558,2
353,128,904,2
215,-35,975,2
192,20,1030,2
-37,69,1008,2
301,143,1072,2
412,227,821,2
-38,-20,859,2
506,99,1174,2
302,144,1040,2
457,303,935,2
-53,166,1080,2
280,144,893,2
449,312,885,2
706,239,664,2
436,247,761,2
323,0,792,2
45,-33,1013,2
457,64,1039,2
-485,169,1258,2
-45,440,1322,2
77,414,1086,2
564,459,808,2
791,306,559,2
613,355,905,2
709,-158,735,2
673,-90,798,2
654,-80,875,2
-334,106,1069,2
77,29,1066,2
-41,423,976,2
245,194,979,2
-155,198,1044,2
181,132,1046,2
152,72,1010,2
691,331,900,2
176,223,981,2
412,149,953,2
306,-15,896,2
554,-196,738,2
640,279,769,2
587,216,700,2
332,199,776,2
549,160,1025,2
-141,26,1162,2
-56,251,1168,2
177,206,1138,2
264,316,1184,2
480,321,1018,2
531,319,889,2
426,61,906,2
655,399,651,2
638,123,614,2
251,285,993,2
205,132,1052,2
-206,19,1107,2
-16,266,1072,2
-95,303,982,2
360,52,795,2
14,-30,992,2
605,226,1052,2
276,179,794,2
657,118,808,2
537,61,763,2
479,-240,767,2
395,-38,1053,2
430,-148,942,2
374,386,827,2
405,344,852,2
23,295,1121,2
-37,23,1116,2
101,160,1133,2
97,406,1020,2
136,295,1023,2
491,430,969,2
551,93,835,2
509,181,840,2
844,211,657,2
611,0,974,2
223,-122,754,2
279,-52,996,2
-27,66,995,2
48,321,1090,2
236,131,978,2
172,182,1024,2
60,-91,988,2
427,197,1063,2
310,-49,885,2
609,404,1071,2
295,178,873,2
218,23,1006,2
645,83,757,2
305,260,899,2
274,458,890,2
373,374,921,2
139,87,968,2
259,198,1104,2
-170,193,1150,2
147,144,1140,2
226,382,1096,2
412,239,836,2
779,434,802,2
605,-28,333,2
539,150,658,2
405,-379,923,2
939,154,830,2
-236,142,988,2
635,-33,1109,2
137,320,1001,2
224,57,1144,2
207,161,904,2
420,59,935,2
516,227,761,2
470,178,938,2
466,47,830,2
471,201,794,2
563,-18,778,2
347,193,921,2
217,115,808,2
699,211,855,2
184,73,994,2
366,135,1082,2
126,110,1022,2
453,374,1061,2
517,-8,902,2
750,331,945,2
435,-53,875,2
496,234,750,2
570,-59,461,2
422,275,889,2
317,-164,966,2
-114,70,1372,2
314,7,1059,2
287,232,1071,2
384,24,949,2
508,283,792,2
381,36,833,2
451,56,781,2
592,95,823,2
552,95,681,2
486,-84,944,2
264,1,856,2
419,48,959,2
345,214,1027,2
281,35,1106,2
432,9,1052,2
405,135,972,2
718,92,1065,2
466,132,987,2
599,106,479,2
321,76,598,2
591,220,886,2
266,-220,1078,2
381,-26,1083,2
174,-81,862,2
405,9,1033,2
277,4,955,2
497,134,1010,2
479,156,786,2
377,57,972,2
423,164,857,2
594,25,745,2
359,256,779,2
617,-238,829,2
446,31,818,2
447,-147,1039,2
221,17,1041,2
309,-16,1037,2
342,200,934,2
755,22,806,2
530,4,874,2
754,79,943,2
457,106,919,2
457,21,854,2
334,-25,766,2
370,160,864,2
305,82,950,2
274,23,1114,2
105,-5,1069,2
299,-10,1196,2
228,-48,900,2
402,197,958,2
582,142,782,2
343,-30,834,2
480,111,935,2
607,123,798,2
518,-41,704,2
543,-139,769,2
440,-106,711,2
433,53,898,2
187,72,1139,2
38,184,1221,2
356,149,1171,2
415,408,1014,2
559,252,910,2
429,148,848,2
567,331,946,2
367,51,956,2
507,106,754,2
325,-62,882,2
446,-60,1049,2
258,-59,978,2
102,-4,874,2
4,137,1074,2
232,88,990,2
311,171,992,2
632,298,881,2
381,9,934,2
459,25,819,2
684,-44,637,2
500,-52,603,2
657,-249,937,2
406,-123,758,2
337,66,912,2
208,193,982,2
130,189,1026,2
231,276,1210,2
370,276,1098,2
474,152,1087,2
589,47,854,2
628,7,817,2
495,92,913,2
400,-25,856,2
447,8,769,2
575,156,772,2
531,-132,909,2
66,239,1184,2
228,138,1179,2
227,34,998,2
176,158,1051,2
366,134,830,2
468,260,816,2
296,35,1016,2
481,23,809,2
552,45,710,2
641,25,602,2
465,-91,929,2
23,-174,842,2
661,395,939,2
639,-159,1204,2
-343,258,1202,2
391,547,1179,2
320,21,1065,2
219,152,921,2
524,216,845,2
433,215,837,2
345,157,1007,2
550,94,591,2
671,139,919,2
244,-57,994,2
60,-88,986,2
303,-79,906,2
132,143,1023,2
348,35,880,2
61,217,1016,2
298,173,1160,2
517,100,979,2
412,156,920,2
375,55,874,2
454,-153,580,2
701,24,936,2
416,-15,606,2
485,51,929,2
72,124,1014,2
-174,234,1279,2
8,155,1265,2
78,441,1027,2
716,487,911,2
593,403,913,2
393,58,901,2
381,45,944,2
382,59,773,2
485,-189,747,2
491,-6,862,2
271,76,1012,2
161,-222,1003,2
251,227,1034,2
-146,-160,1213,2
111,86,1162,2
188,188,815,2
269,276,991,2
505,149,947,2
579,318,952,2
467,108,492,2
492,44,864,2
512,3,837,2
377,34,1026,2
329,21,794,2
188,59,1189,2
75,133,1044,2
320,191,1154,2
177,226,1038,2
437,309,958,2
472,239,860,2
518,290,965,2
574,-1,893,2
302,132,815,2
311,37,866,2
369,82,963,2
179,5,1010,2
95,17,972,2
230,35,957,2
-98,131,1176,2
272,52,1005,2
488,334,880,2
328,123,958,2
373,38,917,2
509,-58,761,2
570,39,640,2
543,36,846,2
364,10,1037,2
286,34,994,2
172,65,1027,2
235,20,965,2
185,187,1049,2
381,122,992,2
322,92,1100,2
572,193,958,2
408,172,1078,2
406,7,1093,2
373,27,688,2
577,142,653,2
413,87,759,2
591,62,967,2
105,-49,1130,2
-87,58,1174,2
135,47,1010,2
257,176,815,2
167,108,1036,2
327,260,962,2
370,200,962,2
369,41,944,2
799,21,700,2
510,-120,594,2
521,-126,901,2
320,-220,846,2
376,-78,988,2
426,69,855,2
208,183,1070,2
185,180,1234,2
94,237,1086,2
214,160,1087,2
442,183,928,2
360,118,972,2
242,159,941,2
478,309,1122,2
413,37,616,2
724,148,764,2
431,-220,826,2
141,127,1131,2
262,125,1047,2
63,110,1056,2
215,90,1018,2
-76,57,1176,2
121,161,978,2
229,395,1054,2
317,99,883,2
414,209,854,2
548,146,774,2
617,69,676,2
426,-25,837,2
504,-85,940,2
281,-40,912,2
287,84,921,2
204,191,1027,2
96,129,1159,2
240,221,1166,2
412,260,1111,2
448,128,931,2
223,-6,937,2
492,128,943,2
499,-33,633,2
631,-53,499,2
583,55,961,2
390,185,843,2
237,140,952,2
87,-65,1177,2
56,116,1098,2
74,-5,942,2
328,84,1040,2
299,-2,1001,2
578,146,1098,2
476,125,995,2
371,119,858,2
265,109,733,2
460,-71,1039,2
399,90,875,2
473,377,766,2
206,244,878,2
166,178,1104,2
-95,147,1062,2
109,194,1113,2
161,297,992,2
403,343,913,2
641,147,933,2
405,-243,965,2
472,-69,1036,2
538,-47,698,2
489,144,731,2
92,160,888,2
179,75,1098,2
0,123,1010,2
33,221,1111,2
158,96,1123,2
289,56,994,2
306,75,803,2
414,250,1023,2
302,129,981,2
318,14,864,2
456,161,926,2
537,-10,894,2
207,59,807,2
330,204,881,2
361,119,904,2
333,74,1073,2
178,19,964,2
242,-52,1019,2
368,202,1000,2
529,114,968,2
378,7,1031,2
466,154,1005,2
558,-41,699,2
745,192,641,2
580,132,688,2
376,90,1017,2
86,120,1116,2
154,6,1193,2
138,127,1085,2
339,35,946,2
278,169,1181,2
374,164,850,2
533,534,903,2
194,77,920,2
356,131,859,2
496,131,732,2
620,35,718,2
376,0,857,2
210,75,1127,2
278,14,1048,2
196,74,1039,2
297,169,931,2
480,113,897,2
545,-18,915,2
561,14,990,2
687,111,1033,2
459,-66,773,2
548,-103,825,2
322,-226,831,2
500,146,838,2
459,-18,962,2
357,102,999,2
371,8,969,2
123,10,1161,2
300,-100,935,2
414,509,861,2
553,179,706,2
678,236,776,2
517,1,918,2
565,-77,798,2
583,25,738,2
759,29,675,2
440,-164,676,2
430,58,847,2
367,17,922,2
369,154,1003,2
329,46,844,2
288,236,969,2
533,218,937,2
538,88,809,2
604,54,874,2
328,178,1006,2
559,181,969,2
484,172,736,2
537,2,759,2
698,128,750,2
387,78,870,2
290,-64,998,2
427,284,991,2
363,-65,926,2
391,77,1304,2
471,-132,813,2
475,514,890,2
557,-78,726,2
205,317,1053,2
301,34,1020,2
554,156,775,2
626,86,952,2
280,-26,683,2
439,120,988,2
543,119,776,2
284,-17,862,2
474,108,754,2
560,180,812,2
500,-42,919,2
775,149,1011,2
457,30,859,2
491,215,1142,2
551,214,820,2
488,238,939,2
418,225,1015,2
427,195,848,2
-22,179,1125,2
459,213,875,2
95,113,885,2
184,303,1093,2
443,51,878,2
520,127,870,2
538,174,818,2
404,255,861,2
354,20,764,2
698,135,772,2
450,-23,867,2
-131,67,1112,2
491,262,990,2
343,188,815,2
327,-18,906,2
611,36,741,2
452,197,858,2
484,-125,923,2
689,-22,884,2
772,-117,801,2
693,9,774,2
644,-66,716,2
405,205,1048,2
654,182,959,2
307,200,943,2
134,477,1186,2
299,4,771,2
249,635,966,2
694,-66,915,2
195,122,880,2
711,199,887,2
374,211,618,2
743,-265,732,2
423,-70,833,2
605,71,829,2
182,195,923,2
522,60,896,2
391,295,896,2
445,55,936,2
386,32,1101,2
694,89,882,2
633,137,915,2
661,67,658,2
616,117,793,2
420,-87,796,2
430,61,874,2
728,-39,803,2
224,338,925,2
132,-139,1067,2
303,180,1272,2
256,-41,1028,2
230,178,928,2
446,335,935,2
579,54,709,2
464,63,945,2
477,13,728,2
511,119,783,2
461,105,693,2
578,27,704,2
440,21,842,2
325,107,869,2
399,37,994,2
380,33,1010,2
654,101,806,2
606,-88,855,2
641,24,1026,2
447,-71,911,2
605,-179,947,2
443,35,767,2
360,109,947,2
373,-53,800,2
1,251,1209,2
144,-29,1269,2
239,30,1081,2
320,-5,956,2
276,-43,989,2
526,307,753,2
402,-32,884,2
435,-33,844,2
626,-38,771,2
552,7,742,2
409,108,842,2
236,124,940,2
289,-18,994,2
149,100,990,2
438,85,1152,2
460,261,967,2
441,-3,960,2
494,124,818,2
552,50,897,2
336,18,945,2
327,173,957,2
367,18,897,2
380,-70,760,2
306,280,966,2
-37,-74,1011,2
77,-81,1373,2
156,-104,1038,2
375,107,959,2
526,174,818,2
550,22,820,2
498,-191,538,2
719,-41,813,2
705,-248,538,2
410,227,884,2
79,134,1060,2
10,98,1316,2
274,231,1297,2
259,220,843,2
457,226,919,2
679,1,830,2
601,-131,748,2
752,-101,798,2
536,3,905,2
449,-83,823,2
330,96,804,2
731,68,879,2
108,-242,956,2
183,240,1151,2
44,313,1293,2
324,10,1064,2
361,150,885,2
476,27,701,2
532,133,738,2
525,126,818,2
549,106,837,2
272,11,893,2
403,-64,989,2
280,250,763,2
787,-55,869,2
294,146,882,2
436,79,956,2
499,-45,934,2
508,225,926,2
579,150,847,2
467,-71,741,2
610,158,810,2
533,-176,770,2
474,3,1038,2
668,93,805,2
434,259,974,2
244,-22,922,2
515,192,1254,2
374,81,1020,2
414,308,933,2
365,209,1211,2
341,379,983,2
341,330,947,2
151,210,925,2
527,238,945,2
283,-24,477,2
817,192,839,2
438,3,711,2
469,-113,961,2
460,-15,722,2
531,75,1011,2
372,56,901,2
395,201,1036,2
355,197,1082,2
289,198,1005,2
468,197,951,2
237,185,783,2
558,277,967,2
386,-149,623,2
346,-132,963,2
624,52,1044,2
279,-9,919,2
579,148,917,2
339,75,795,2
572,-118,846,2
534,205,914,2
403,162,714,2
547,234,998,2
553,0,724,2
513,69,717,2
429,-100,755,2
576,204,954,2
331,47,878,2
541,187,975,2
491,115,1012,2
356,264,1069,2
600,81,889,2
685,180,790,2
698,-5,777,2
499,316,922,2
384,19,915,2
485,251,862,2
251,140,948,2
250,57,1067,2
431,17,985,2
442,107,885,2
435,70,1076,2
404,139,855,2
568,151,760,2
464,92,746,2
478,248,1027,2
648,-162,712,2
418,288,810,2
421,163,825,2
324,62,959,2
277,111,1134,2
323,17,961,2
266,17,876,2
450,92,894,2
491,-32,831,2
708,43,802,2
604,-53,783,2
467,72,898,2
449,-85,816,2
513,17,777,2
656,-62,856,2
396,32,913,2
238,318,1126,2
133,142,1037,2
296,182,1089,2
316,9,950,2
433,-39,841,2
535,167,754,2
641,103,824,2
690,-15,755,2
513,-49,818,2
595,-88,844,2
653,-77,673,2
476,-14,727,2
503,125,862,2
607,66,857,2
540,202,916,2
461,-2,918,2
402,161,1109,2
443,34,904,2
546,2,881,2
576,66,816,2
503,-10,929,2
643,-235,1054,2
901,-288,1156,2
1024,119,1757,2
901,485,1723,2
635,253,1514,2
439,136,1348,2
284,78,1003,2
93,-55,911,2
-19,-73,699,2
-173,-204,580,2
-203,-176,629,2
-142,-138,760,2
-213,-176,755,2
-211,-232,761,2
-258,-119,592,2
-304,-30,407,2
-331,-268,657,2
-310,-251,705,2
-306,-348,531,2
-325,-281,623,2
-305,-216,734,2
-448,-470,720,2
-467,-464,829,2
-514,-416,700,2
-544,-228,688,2
-499,-221,631,2
-421,-50,579,2
-432,-430,710,2
-289,-291,626,2
-219,-186,474,2
-211,31,594,2
-129,311,812,2
-99,216,635,2
107,80,707,2
713,379,750,2
1153,1236,768,2
997,735,843,2
804,1700,1093,2
604,711,1837,2
750,665,864,2
483,987,881,2
348,403,761,2
336,387,677,2
365,422,736,2
379,370,824,2
535,312,684,2
663,257,748,2
394,322,916,2
355,606,1070,2
349,486,762,2
473,427,811,2
700,318,780,2
590,317,728,2
777,460,759,2
624,529,802,2
545,357,341,2
496,430,-173,2
525,720,571,2
218,1172,604,2
-27,1163,476,2
-105,797,577,2
-63,1446,716,2
-13,902,509,2
275,840,389,2
453,618,369,2
388,735,552,2
413,779,648,2
422,508,499,2
580,501,444,2
584,277,669,2
488,298,614,2
520,532,697,2
415,480,665,2
428,453,715,2
411,596,754,2
191,521,711,2
534,694,900,2
302,596,848,2
480,688,511,2
548,527,537,2
567,545,530,2
521,696,686,2
505,500,806,2
559,449,607,2
662,524,604,2
301,716,583,2
274,923,503,2
50,923,756,2
187,856,701,2
130,872,563,2
176,710,433,2
622,950,579,2
567,814,487,2
375,771,567,2
219,663,598,2
405,558,463,2
590,406,441,2
620,485,785,2
501,-18,454,2
603,772,657,2
349,483,685,2
254,892,701,2
12,953,661,2
-202,1294,702,2
28,1453,600,2
413,912,307,2
767,503,242,2
901,327,400,2
564,300,617,2
431,231,839,2
512,483,755,2
283,711,688,2
-218,922,554,2
-91,1075,476,2
-41,1060,497,2
-34,749,623,2
70,740,651,2
96,781,671,2
176,774,760,2
236,924,733,2
446,708,575,2
506,623,321,2
478,627,494,2
532,392,484,2
536,603,712,2
339,486,753,2
352,693,636,2
314,719,684,2
247,742,673,2
332,814,717,2
367,729,646,2
554,656,515,2
554,683,543,2
548,624,630,2
557,486,693,2
446,267,637,2
597,417,581,2
413,551,833,2
121,618,610,2
127,849,672,2
90,820,733,2
157,1019,659,2
229,828,577,2
325,998,625,2
453,724,500,2
376,756,451,2
364,566,513,2
313,426,590,2
570,503,560,2
526,389,552,2
540,628,624,2
489,562,634,2
381,455,654,2
507,485,683,2
473,442,675,2
405,566,668,2
404,720,759,2
549,610,688,2
531,760,605,2
682,771,600,2
548,827,608,2
347,680,668,2
338,717,514,2
375,685,416,2
247,682,352,2
385,1060,492,2
95,943,652,2
37,751,790,2
277,519,624,2
450,668,600,2
361,609,743,2
510,627,573,2
511,620,536,2
452,638,560,2
617,484,574,2
553,543,531,2
496,466,507,2
410,500,711,2
360,823,790,2
528,518,655,2
420,869,589,2
361,836,619,2
207,984,814,2
264,842,592,2
435,884,539,2
400,823,501,2
435,853,527,2
405,630,509,2
484,595,531,2
509,632,467,2
308,817,417,2
25,794,535,2
-34,806,724,2
191,743,593,2
55,768,587,2
84,931,681,2
204,907,654,2
383,768,547,2
305,653,558,2
221,573,649,2
441,635,536,2
625,400,482,2
589,395,575,2
462,458,893,2
371,312,764,2
368,409,819,2
173,697,734,2
88,628,757,2
138,814,691,2
322,805,750,2
395,584,483,2
643,719,614,2
393,422,575,2
666,600,599,2
729,303,526,2
530,451,569,2
530,800,732,2
276,651,568,2
433,983,834,2
245,784,722,2
231,1116,837,2
154,1007,728,2
273,935,486,2
399,931,439,2
340,952,424,2
394,896,416,2
274,734,390,2
419,520,243,2
529,514,452,2
564,270,476,2
616,589,787,2
391,400,758,2
277,613,859,2
396,621,705,2
297,822,614,2
368,809,690,2
247,699,588,2
564,715,626,2
469,616,644,2
619,633,600,2
374,413,653,2
333,525,658,2
377,558,601,2
172,739,790,2
256,811,737,2
167,885,785,2
-51,813,783,2
142,979,877,2
276,787,416,2
315,893,354,2
268,886,486,2
263,682,505,2
444,526,496,2
659,428,597,2
439,247,599,2
398,621,816,2
493,330,752,2
344,413,724,2
325,572,805,2
95,732,905,2
79,1301,685,2
530,671,340,2
709,676,601,2
385,678,596,2
361,702,714,2
360,395,518,2
584,333,538,2
539,517,785,2
490,656,660,2
66,675,706,2
267,1058,773,2
3,768,680,2
99,1006,800,2
-148,891,852,2
237,1063,508,2
394,748,297,2
351,853,359,2
552,559,478,2
403,522,537,2
678,204,455,2
576,329,672,2
540,311,697,2
323,715,892,2
400,503,755,2
83,815,679,2
483,803,782,2
262,462,482,2
661,684,680,2
498,558,668,2
599,736,704,2
404,573,708,2
408,634,656,2
721,342,486,2
247,435,697,2
144,904,627,2
-24,850,622,2
90,817,700,2
246,787,684,2
254,865,616,2
-186,861,909,2
199,668,692,2
362,774,516,2
555,774,484,2
230,604,515,2
697,625,530,2
660,319,574,2
395,534,754,2
338,408,716,2
411,776,611,2
262,733,612,2
157,939,655,2
333,718,722,2
473,788,700,2
492,514,561,2
491,537,621,2
578,651,587,2
356,536,656,2
654,457,705,2
460,364,718,2
375,488,737,2
333,711,728,2
185,759,532,2
158,817,779,2
-209,868,805,2
102,845,677,2
121,905,554,2
384,492,635,2
155,745,771,2
734,694,578,2
309,434,510,2
531,523,640,2
517,193,623,2
505,467,743,2
353,333,926,2
314,517,747,2
420,709,660,2
235,690,674,2
434,775,881,2
80,826,738,2
311,817,753,2
324,749,646,2
513,557,599,2
533,685,654,2
512,689,776,2
304,507,630,2
513,597,690,2
144,650,552,2
189,952,563,2
90,962,605,2
-47,735,415,2
-264,919,745,2
116,805,840,2
227,537,672,2
189,666,624,2
571,624,682,2
314,191,541,2
489,761,769,2
452,409,692,2
301,519,777,2
152,416,701,2
269,749,824,2
201,597,568,2
426,885,668,2
119,787,661,2
273,720,808,2
92,706,776,2
181,736,695,2
327,583,694,2
443,531,636,2
320,662,625,2
477,591,656,2
726,304,508,2
442,552,664,2
309,635,724,2
72,603,766,2
121,621,829,2
43,727,802,2
321,857,747,2
-96,828,809,2
21,1251,905,2
302,828,359,2
275,745,436,2
276,625,548,2
564,562,531,2
704,245,497,2
352,611,708,2
562,457,656,2
287,662,793,2
423,440,719,2
222,430,636,2
470,652,759,2
205,627,757,2
575,595,696,2
552,580,645,2
545,620,752,2
602,647,677,2
501,616,620,2
497,611,635,2
376,445,663,2
549,791,636,2
201,758,587,2
164,996,748,2
199,836,787,2
-136,694,665,2
204,680,661,2
238,659,733,2
302,684,550,2
495,692,589,2
443,469,703,2
340,582,704,2
450,647,603,2
318,585,499,2
330,674,785,2
447,236,595,2
281,317,803,2
649,623,770,2
260,771,742,2
142,870,807,2
56,908,838,2
253,766,621,2
299,668,493,2
536,674,497,2
531,521,588,2
546,476,539,2
483,485,694,2
339,373,886,2
389,609,746,2
46,603,634,2
335,805,874,2
83,699,726,2
149,760,746,2
191,853,800,2
27,756,748,2
310,976,719,2
352,549,406,2
243,678,580,2
414,643,581,2
489,493,488,2
490,675,636,2
433,485,722,2
409,403,719,2
311,597,884,2
269,536,671,2
327,702,788,2
98,720,607,2
314,865,721,2
368,646,675,2
439,561,697,2
492,639,610,2
442,569,534,2
401,487,624,2
692,414,579,2
518,220,723,2
433,639,846,2
199,616,773,2
239,717,787,2
418,962,812,2
149,546,686,2
414,816,737,2
380,627,702,2
311,866,722,2
456,725,603,2
196,802,712,2
408,742,603,2
578,692,520,2
427,439,364,2
599,601,571,2
495,302,584,2
278,460,802,2
424,596,781,2
283,743,755,2
168,822,747,2
242,748,765,2
65,880,623,2
547,880,671,2
481,673,411,2
503,728,671,2
397,507,653,2
445,340,445,2
349,510,587,2
270,728,663,2
213,680,875,2
90,742,827,2
80,630,843,2
180,800,867,2
171,566,753,2
404,649,729,2
438,520,603,2
311,466,507,2
219,621,711,2
569,339,496,2
425,898,720,2
259,652,754,2
195,652,791,2
392,368,657,2
504,426,581,2
429,414,751,2
532,350,770,2
543,619,798,2
472,391,659,2
574,731,684,2
593,411,630,2
526,518,536,2
96,803,840,2
37,837,647,2
-97,915,706,2
